subnum,group,session,tod,block,trial,targ,foil,studytime,rt,order,resp,corr
222,A,10,2,3,1,1000111111100000100110101,1100110111100000100110101,1006,654,0,<rshift>,1
222,A,10,2,3,2,0111011000100111011000010,0111011000100111010000011,1005,1635,0,<rshift>,1
222,A,10,2,3,3,0011100010100111001111000,0011100000100111101111000,1005,1333,0,<rshift>,1
222,A,10,2,3,4,1000101001111101100000011,1000101001111100100000111,1005,973,0,<rshift>,1
222,A,10,2,3,5,1101100011010000001101110,1011100011010000001101110,1006,1364,0,<rshift>,1
222,A,10,2,3,6,0011000000011110111101101,0001100000011110111101101,1006,1851,0,<rshift>,1
222,A,10,2,3,7,1000001111001001000101011,0000001111001001010101011,1006,1262,1,<lshift>,1
222,A,10,2,3,8,1010111010100001111000110,1010111010101001110000110,1005,1323,1,<lshift>,1
222,A,10,2,3,9,0100100000110010110111001,0100100000110010110101011,1006,1231,1,<lshift>,1
222,A,10,2,3,10,1010110010001010001110111,1011110010001010001100111,1005,1019,0,<rshift>,1
222,A,10,2,3,11,1001110100110110000001010,1011010100110110000001010,1005,1404,1,<lshift>,1
222,A,10,2,3,12,1001111110111000010100010,1001111110101000010101010,1004,941,1,<lshift>,1
222,A,10,2,3,13,1010101010011101011000011,1010101010111001011000011,1005,764,0,<rshift>,1
222,A,10,2,3,14,0000101001110111011010010,0001101001110111011000010,1006,1028,0,<rshift>,1
222,A,10,2,3,15,1101110100110111100100000,1101110101110101100100000,1005,1028,1,<lshift>,1
222,A,10,2,3,16,1100111101110100001001000,1100111101110000011001000,1006,900,1,<lshift>,1
222,A,10,2,3,17,1010110010000111000111011,1010100010000111001111011,1005,1139,0,<rshift>,1
222,A,10,2,3,18,0101100110001110100001011,0100110110001110100001011,1006,1399,0,<rshift>,1
222,A,10,2,3,19,0001100110011001001100011,0001100100011101001100011,1006,1587,1,<lshift>,1
222,A,10,2,3,20,1010110111000100000110110,1110110111000000000110110,1006,854,0,<rshift>,1
222,A,10,2,3,21,1110100110100001111000010,1110100110000001111010010,1006,1724,1,<lshift>,1
222,A,10,2,3,22,1111100100101001000101101,1111100100001001100101101,1004,908,0,<rshift>,1
222,A,10,2,3,23,0111010001111000101100000,1011010001111000101100000,1005,2068,1,<rshift>,0
222,A,10,2,3,24,0000000111101011100110110,0000001111101011100010110,1006,838,0,<rshift>,1
222,A,10,2,3,25,1010011100110000111010011,1010010100110000111110011,1005,1172,0,<lshift>,0
222,A,10,2,3,26,0100111100010010110001100,0100111100000110110001100,1006,1813,0,<rshift>,1
222,A,10,2,3,27,0100010010101010101110010,0100010010101010101010011,1006,869,0,<rshift>,1
222,A,10,2,3,28,0111100010110000010111101,0111100001110000010111101,1005,892,0,<rshift>,1
222,A,10,2,3,29,1010100011111010010100011,1010100001111010010101011,1005,715,1,<rshift>,0
222,A,10,2,3,30,1100001011000111110110100,1100001011010101110110100,1005,1358,1,<lshift>,1
222,A,10,2,3,31,0101010110110100100100100,0001010110110100110100100,1006,820,1,<lshift>,1
222,A,10,2,3,32,0000111100101111000011101,0010111100101110000011101,1006,781,1,<lshift>,1
222,A,10,2,3,33,1110000001011001101111010,1110000000011001101111110,1005,787,1,<lshift>,1
222,A,10,2,3,34,0001111100000010001110011,0011110100000010001110011,1006,1254,1,<lshift>,1
222,A,10,2,3,35,0000111010010110101100111,0100111010010110101100101,1006,957,1,<rshift>,0
222,A,1,1,1,1,1001101111000011000011100,1001101111000011000111000,1006,7577,0,<lshift>,0
222,A,1,1,1,2,1101000001100001111101000,1101010001000001111101000,1006,2635,1,<lshift>,1
222,A,1,1,1,3,0000111001100001111110010,0100111001100001011110010,1005,1717,1,<lshift>,1
222,A,1,1,1,4,0001110000111101100101110,0001111000101101100101110,1006,1418,1,<lshift>,1
222,A,1,1,1,5,1110010001000001101111101,1111000001000001101111101,1005,2453,1,<lshift>,1
222,A,1,1,1,6,1101001110010110001010010,0101001110010110101010010,1005,1917,0,<rshift>,1
222,A,1,1,1,7,0110001000100011111101001,0110001000101011111101000,1006,2379,1,<lshift>,1
222,A,1,1,1,8,0101011100111110000100011,0101011100111100010100011,1006,1532,1,<lshift>,1
222,A,1,1,1,9,1100111110000001010100110,1100101110000001010100111,1006,1653,0,<rshift>,1
222,A,1,1,1,10,1100001001001111000101010,1101001001001111000101000,1006,4693,1,<rshift>,0
222,A,1,1,1,11,1011110100100010000111011,1010110101100010000111011,1006,1498,0,<rshift>,1
222,A,1,1,1,12,0011011100011010110100110,0111011100011010110100010,1005,4884,0,<lshift>,0
222,A,1,1,1,13,0101010000101110110100110,0100010000101110110100111,1006,2012,0,<rshift>,1
222,A,1,1,1,14,1001001110011001000011100,1001001110011001000110100,1006,1877,0,<rshift>,1
222,A,1,1,1,15,1111000001011000101010010,1111000001011100001010010,1006,2637,0,<rshift>,1
222,A,1,1,1,16,1110110010001111010000101,1110110000011111010000101,1005,1205,0,<rshift>,1
222,A,1,1,1,17,0011010010100101111100010,0011010010100101110101010,1006,2107,0,<rshift>,1
222,A,1,1,1,18,0001111010000001001110101,1000111010000001001110101,1006,1117,0,<rshift>,1
222,A,1,1,1,19,0000110110001101000111001,0001110110001101000101001,1006,1814,0,<rshift>,1
222,A,1,1,1,20,0100101000100100010111111,0100101000101100010111101,1006,1588,0,<rshift>,1
222,A,1,1,1,21,0111101000011010101100000,0111101000001010101110000,1006,3941,0,<lshift>,0
222,A,1,1,1,22,1010001100011110011101001,1010001100011110011110001,1005,7562,1,<rshift>,0
222,A,1,1,1,23,1010101101110010001010011,1010101101100110001010011,1005,1996,1,<lshift>,1
222,A,1,1,1,24,0011110001011110110100100,0011110001011110110000101,1004,2973,1,<lshift>,1
222,A,1,1,1,25,1100101011000110001010110,1100101010001110001010110,1006,1870,1,<lshift>,1
222,A,1,1,1,26,0010100111010111111001000,0110000111010111111001000,1006,1555,1,<lshift>,1
222,A,1,1,1,27,1001101000001110001100101,1011001000001110001100101,1006,4213,1,<rshift>,0
222,A,1,1,1,28,0011110011011001000000101,0011110011011001001000001,1006,3870,1,<lshift>,1
222,A,1,1,1,29,0110101011001100000011001,0110100011001100001011001,1006,1325,0,<lshift>,0
222,A,1,1,1,30,0011010101001110011101000,0011010101001110011001001,1006,2045,0,<rshift>,1
222,A,1,1,1,31,0100000110010110011001101,0100100110010100011001101,1006,2262,1,<lshift>,1
222,A,1,1,1,32,0011000001011111011101000,0011000101011111011100000,1006,2021,1,<rshift>,0
222,A,1,1,1,33,0101101111010110001010100,0101101111010110010010100,1005,1812,0,<lshift>,0
222,A,1,1,1,34,0001011011101001111001001,0001011011101011111000001,1006,1477,0,<lshift>,0
222,A,1,1,1,35,0111110010000101101001010,0111100010000111101001010,1006,1309,0,<rshift>,1
222,A,2,2,1,1,0111001011101100001100011,0111001011101100000101011,1006,1190,1,<lshift>,1
222,A,2,2,1,2,0011100010110011101001000,1011100010010011101001000,1006,3058,0,<rshift>,1
222,A,2,2,1,3,0010111001111010001000011,0001111001111010001000011,1004,1190,0,<rshift>,1
222,A,2,2,1,4,0100001100011010111101000,0100001100011010011101001,1006,924,0,<rshift>,1
222,A,2,2,1,5,1000000111100001011110001,1000000111100010011110001,1006,2078,1,<lshift>,1
222,A,2,2,1,6,0011110000110110001101000,0011110000111110001100000,1006,851,0,<rshift>,1
222,A,2,2,1,7,1111111010001000010110001,1110111110001000010110001,1005,1076,1,<lshift>,1
222,A,2,2,1,8,0100010001011010101010110,0100010001011011101000110,1005,3365,0,<rshift>,1
222,A,2,2,1,9,1000001001101100010101110,1100001001101100000101110,1005,1195,1,<lshift>,1
222,A,2,2,1,10,1100010001000101101011111,1000011001000101101011111,1004,1389,0,<lshift>,0
222,A,2,2,1,11,1111001001100010100000011,1111000001100010110000011,1006,1133,0,<rshift>,1
222,A,2,2,1,12,1011101000010001101010001,1001101001010001101010001,1006,2262,0,<rshift>,1
222,A,2,2,1,13,1100010011111110001010001,1100010011111110001010010,1005,1435,0,<rshift>,1
222,A,2,2,1,14,1101100110110110010010010,0111100110110110010010010,1005,916,0,<rshift>,1
222,A,2,2,1,15,1000100110000101110110011,1000100110001101100110011,1006,1444,0,<rshift>,1
222,A,2,2,1,16,0110110011100110100000001,0110110010101110100000001,1006,789,0,<rshift>,1
222,A,2,2,1,17,1010101010001000111100011,1010101010000100111100011,1006,998,0,<rshift>,1
222,A,2,2,1,18,1000100001010001111101001,1000100101010000111101001,1006,1420,0,<rshift>,1
222,A,2,2,1,19,0110110010011011110011000,0111010010011011110011000,1005,908,0,<rshift>,1
222,A,2,2,1,20,0001010000100111001100111,0001010000101011001100111,1006,885,0,<lshift>,0
222,A,2,2,1,21,1001010100111100101011010,1001010100110100101111010,1005,1003,1,<lshift>,1
222,A,2,2,1,22,0101100101010000101101011,0101100101010100101001011,1006,1191,1,<lshift>,1
222,A,2,2,1,23,0110001111110000011001100,0010001111110000011001110,1006,893,1,<lshift>,1
222,A,2,2,1,24,0101011001011001100000110,1101011001011001100000010,1006,916,0,<rshift>,1
222,A,2,2,1,25,1010001101001111001100110,1110001101001110001100110,1006,900,1,<rshift>,0
222,A,2,2,1,26,0101110001101010110000111,0101010011101010110000111,1006,890,0,<rshift>,1
222,A,2,2,1,27,1100110010100101110100010,1100110011100101110000010,1006,1156,0,<rshift>,1
222,A,2,2,1,28,0110010101000011111000011,0100010111000011111000011,1006,1013,1,<rshift>,0
222,A,2,2,1,29,1111101100011011100010000,1101101100011011100110000,1005,923,1,<lshift>,1
222,A,2,2,1,30,1001110011010111001100010,1001110010011111001100010,1005,854,0,<rshift>,1
222,A,2,2,1,31,1111000000001101101001011,0111000010001101101001011,1006,961,1,<lshift>,1
222,A,2,2,1,32,0001010001100010110111011,0011010001000010110111011,1006,1326,0,<rshift>,1
222,A,2,2,1,33,0010100000011111101110011,0010100001011111001110011,1005,1043,1,<lshift>,1
222,A,2,2,1,34,0010011001011101111011000,0010011001111101110011000,1005,2365,0,<rshift>,1
222,A,2,2,1,35,1110111010111011000100000,1010111010111011010100000,1005,2131,1,<lshift>,1
222,A,3,3,3,1,1010110110001111000100001,1010100110101111000100001,1005,871,0,<lshift>,0
222,A,3,3,3,2,1111101000000110111000110,1011101000000110111001110,1005,1449,1,<lshift>,1
222,A,3,3,3,3,0111100110000100011010100,0111000110000100011011100,1005,1037,1,<lshift>,1
222,A,3,3,3,4,0111010000111010000011101,0111010000111000010011101,1005,1029,0,<rshift>,1
222,A,3,3,3,5,0100110011000011011101000,0000110111000011011101000,1005,926,0,<rshift>,1
222,A,3,3,3,6,1011011011000010110100101,0111011011000010110100101,1006,891,0,<rshift>,1
222,A,3,3,3,7,0100101001001010011101110,0100101001000110011101110,1005,1116,1,<lshift>,1
222,A,3,3,3,8,1101001111010111100000001,1101001111010111100000100,1005,2420,1,<lshift>,1
222,A,3,3,3,9,0110000010001111010011110,0100000010101111010011110,1005,1342,1,<lshift>,1
222,A,3,3,3,10,0100101111100001010000111,0100101111100001110000101,1006,1044,1,<lshift>,1
222,A,3,3,3,11,1001001100110010100101101,1001001101110010100101001,1006,1086,1,<lshift>,1
222,A,3,3,3,12,0010111001110100001110001,0011011001110100001110001,1007,1243,0,<lshift>,0
222,A,3,3,3,13,1010000010011010110010101,1010000010011000110011101,1005,1309,0,<rshift>,1
222,A,3,3,3,14,0001001101111010011010000,0001001100111010011010010,1006,1014,0,<rshift>,1
222,A,3,3,3,15,0101001101011111110000100,0101001001011111110010100,1006,1067,1,<lshift>,1
222,A,3,3,3,16,0100110011010101010101000,0100010011010101110101000,1006,1206,1,<lshift>,1
222,A,3,3,3,17,0101010011010010011011110,0101001011010010011011110,1005,1117,1,<lshift>,1
222,A,3,3,3,18,0010111111010010110010100,0110111111010000110010100,1005,1610,0,<lshift>,0
222,A,3,3,3,19,1100100001100110100101100,1100100001100110100011100,1006,2637,0,<lshift>,0
222,A,3,3,3,20,1001101001110010010111001,1000101001110010011111001,1005,781,1,<lshift>,1
222,A,3,3,3,21,0011101000110100000110011,0011101000010100000110111,1006,1076,1,<lshift>,1
222,A,3,3,3,22,0100111011010100010110110,0100011011010101010110110,1005,1267,0,<rshift>,1
222,A,3,3,3,23,0110010111001100000100101,0110010111001100100000101,1006,1445,0,<rshift>,1
222,A,3,3,3,24,1111010000000001101010101,1111010100000001101010001,1006,1045,1,<lshift>,1
222,A,3,3,3,25,0110011001110001010101011,0110111001110001000101011,1004,973,1,<lshift>,1
222,A,3,3,3,26,1010101101101100010100011,1010101110101100010100011,1006,1243,1,<rshift>,0
222,A,3,3,3,27,1110001100011100101100101,1111001100011100101100001,1006,1069,1,<lshift>,1
222,A,3,3,3,28,0010100111011011011000001,0010100111011110011000001,1006,1021,1,<lshift>,1
222,A,3,3,3,29,1111110000010100000101100,1111110010000100000101100,1006,900,0,<rshift>,1
222,A,3,3,3,30,1100010111001101110001010,1100010111101100110001010,1005,1683,0,<rshift>,1
222,A,3,3,3,31,1010100111011011100100001,0010110111011011100100001,1005,2350,1,<lshift>,1
222,A,3,3,3,32,1001011110110100101011000,1001011110111000101011000,1005,1931,0,<rshift>,1
222,A,3,3,3,33,0011011000110011011010101,0111011000110010011010101,1004,1404,0,<rshift>,1
222,A,3,3,3,34,1010001100011000001110110,1010001100011000101110100,1006,1285,0,<rshift>,1
222,A,3,3,3,35,1111000100000100001111110,1111000100001100001111010,1005,1461,1,<rshift>,0
222,A,4,4,5,1,0110001011000110100011101,0110001011010110100001101,1005,1391,0,<rshift>,1
222,A,4,4,5,2,0101001111100000011101101,0101001111010000011101101,1005,1035,1,<rshift>,0
222,A,4,4,5,3,1100100011001011000010111,1100000011001011001010111,1005,1309,0,<rshift>,1
222,A,4,4,5,4,1000001000110011110100101,1001001000110011110100100,1006,901,1,<lshift>,1
222,A,4,4,5,5,1110001111000000100011001,1100001111000000100011011,1006,972,0,<lshift>,0
222,A,4,4,5,6,0001011101010101111000110,0001011101010101110100110,1005,730,1,<rshift>,0
222,A,4,4,5,7,0000001111100111010011101,0000001111100111110010101,1005,908,1,<lshift>,1
222,A,4,4,5,8,0111100101101000011011001,0111100101100100011011001,1006,883,1,<lshift>,1
222,A,4,4,5,9,0100011101101001101010010,0100011111001001101010010,1006,1950,1,<lshift>,1
222,A,4,4,5,10,1101010110000100101001001,1101010100000100101011001,1006,1244,0,<rshift>,1
222,A,4,4,5,11,1000011011111010100011010,1000011011101010100011110,1005,1380,1,<lshift>,1
222,A,4,4,5,12,1110000001101010010100110,1110000001101010011100010,1006,1084,1,<rshift>,0
222,A,4,4,5,13,1100000111111000000110111,1000000111111000001110111,1004,820,0,<lshift>,0
222,A,4,4,5,14,0011011111010100010100100,0011011101010110010100100,1006,1501,1,<lshift>,1
222,A,4,4,5,15,1100110101010101100100000,1100110001010101100100100,1006,1316,1,<lshift>,1
222,A,4,4,5,16,0100001101110010100010111,0000001101110110100010111,1005,1014,0,<rshift>,1
222,A,4,4,5,17,1110111010001001001100110,1110111010011001001000110,1005,1069,1,<lshift>,1
222,A,4,4,5,18,0011000111011110000100110,0011000111011110001100100,1005,1172,0,<rshift>,1
222,A,4,4,5,19,0011111110001101011100000,0011101110001101011100100,1005,1236,0,<lshift>,0
222,A,4,4,5,20,1000100001101111110100101,1000100001001111110110101,1006,1043,0,<rshift>,1
222,A,4,4,5,21,0000101110011110100100100,0000101110011010100101100,1005,725,1,<rshift>,0
222,A,4,4,5,22,0001011010010010000111101,0001011010010011000111100,1006,1030,0,<lshift>,0
222,A,4,4,5,23,1000001100100011001101111,1000001000100011101101111,1006,1092,1,<rshift>,0
222,A,4,4,5,24,0111110011001001001111000,0111110011001001001011001,1005,1092,0,<rshift>,1
222,A,4,4,5,25,0000001111001001101101010,0000001101001101101101010,1006,1445,1,<rshift>,0
222,A,4,4,5,26,1110100000110110110100110,0110100000110110110101110,1005,1011,1,<lshift>,1
222,A,4,4,5,27,1010000101010000110100111,1000000101110000110100111,1006,1693,1,<lshift>,1
222,A,4,4,5,28,0110000100011100011000111,0110000110011100011000110,1006,1549,0,<rshift>,1
222,A,4,4,5,29,0001101100110110000011101,0001101100110010100011101,1006,996,0,<rshift>,1
222,A,4,4,5,30,1110011110000110001011010,1110011110000110001001110,1005,1084,0,<rshift>,1
222,A,4,4,5,31,0110101111011010000001100,1110101110011010000001100,1006,1389,0,<rshift>,1
222,A,4,4,5,32,0100000110110011011001101,0100000110111011011000101,1005,1646,1,<lshift>,1
222,A,4,4,5,33,1100000011001111110000110,1100100011001111110000010,1006,1045,0,<rshift>,1
222,A,4,4,5,34,1110010100111001101100010,1110010100111011101000010,1005,1332,1,<lshift>,1
222,A,4,4,5,35,0011111001010001000110101,0010111001010001000110111,1006,797,1,<lshift>,1
222,A,5,1,4,1,1011110101000001010000110,1011110001000001011000110,1006,1039,1,<lshift>,1
222,A,5,1,4,2,1100011100000010011010011,1100001100000011011010011,1006,923,0,<rshift>,1
222,A,5,1,4,3,0100101001011001011000101,0110101001011001011000100,1006,836,0,<rshift>,1
222,A,5,1,4,4,0010001101110001010111010,1010001101110001010110010,1004,1374,1,<rshift>,0
222,A,5,1,4,5,1100101110011010010100100,1100101110010010110100100,1005,1092,1,<lshift>,1
222,A,5,1,4,6,0101101101101000010001010,0001101101101000010001110,1006,965,1,<lshift>,1
222,A,5,1,4,7,0010011010011101100000110,0010011000011101100000111,1005,893,0,<rshift>,1
222,A,5,1,4,8,1100100000010101000111110,0110100000010101000111110,1006,2078,0,<rshift>,1
222,A,5,1,4,9,0010011011001101110011100,0010110011001101110011100,1005,1028,0,<rshift>,1
222,A,5,1,4,10,0001010111001100100011100,0001010111001100100111000,1006,909,0,<rshift>,1
222,A,5,1,4,11,0010110010101010101001100,0011110010001010101001100,1006,2022,1,<lshift>,1
222,A,5,1,4,12,0110001010111011010000001,0110000010111011010000101,1006,908,0,<rshift>,1
222,A,5,1,4,13,1101100001101110000011001,1101100001100111000011001,1006,917,1,<lshift>,1
222,A,5,1,4,14,0011000110110110001110000,0011000111110100001110000,1006,903,0,<rshift>,1
222,A,5,1,4,15,0100100000111011101000110,0100100000101011101001110,1006,733,0,<rshift>,1
222,A,5,1,4,16,1101101111001011000010001,1101101111000011001010001,1005,959,0,<rshift>,1
222,A,5,1,4,17,1100101011101001100100000,0101101011101001100100000,1006,1117,1,<lshift>,1
222,A,5,1,4,18,1011110000101010100110101,1011110000101011000110101,1005,1516,1,<lshift>,1
222,A,5,1,4,19,1001011010011100101110100,1101011010011100101110000,1006,1036,1,<lshift>,1
222,A,5,1,4,20,0010101011110100100010110,0010101011110000100110110,1006,1461,0,<rshift>,1
222,A,5,1,4,21,1110010010000001101111101,1110010010000011101110101,1005,1609,1,<lshift>,1
222,A,5,1,4,22,0100110000110011010111101,0100110000110111010101101,1006,965,0,<lshift>,0
222,A,5,1,4,23,0101111001101101010001000,0101111001101101000101000,1006,1484,1,<lshift>,1
222,A,5,1,4,24,0011001011000111101100100,0011001010000111101110100,1006,1500,1,<lshift>,1
222,A,5,1,4,25,0001001000111110100010011,0001001000101110100011011,1006,822,0,<rshift>,1
222,A,5,1,4,26,0001111000100111100011001,0001011000110111100011001,1006,1308,1,<lshift>,1
222,A,5,1,4,27,0111101001001010001001100,0111100101001010001001100,1006,774,1,<lshift>,1
222,A,5,1,4,28,1010100110010111000110101,0010100110010111001110101,1005,1180,1,<lshift>,1
222,A,5,1,4,29,1110010111100001101000101,1110010011100011101000101,1005,836,0,<lshift>,0
222,A,5,1,4,30,0101010000010111000111111,0101010000110111000011111,1005,821,0,<rshift>,1
222,A,5,1,4,31,0101011001100100101010011,0100111001100100101010011,1006,1365,1,<lshift>,1
222,A,5,1,4,32,1000000110110110010011101,1000000110110101010011101,1006,1195,1,<lshift>,1
222,A,5,1,4,33,0001111011101001000110011,0000111011101001001110011,1005,1156,0,<rshift>,1
222,A,5,1,4,34,0011100000011110111101100,0011000000011111111101100,1005,1011,1,<lshift>,1
222,A,5,1,4,35,0011010111010011101100010,0010110111010011101100010,1005,973,0,<rshift>,1
222,A,6,2,1,1,0000101101110100101100100,0000101111110100101100000,1005,639,0,<rshift>,1
222,A,6,2,1,2,0010010110100010111011011,0010010110100011111011001,1005,811,0,<rshift>,1
222,A,6,2,1,3,1111101110011000000101000,1111101110011001000100000,1006,1772,1,<rshift>,0
222,A,6,2,1,4,1001101000100001001111010,1001110000100001001111010,1005,1830,1,<lshift>,1
222,A,6,2,1,5,0100100110010101100010101,0100100110011101100000101,1006,949,0,<rshift>,1
222,A,6,2,1,6,0010000110101100011110001,0010000110101110011100001,1006,748,0,<rshift>,1
222,A,6,2,1,7,0101101100111010010000010,0101101100101010110000010,1006,765,0,<rshift>,1
222,A,6,2,1,8,1111111000101010010100001,1110111100101010010100001,1004,820,1,<lshift>,1
222,A,6,2,1,9,0001010111011001011011100,0001010011011001011111100,1006,779,1,<lshift>,1
222,A,6,2,1,10,1110101011100001000010101,1111101011100000000010101,1006,692,0,<rshift>,1
222,A,6,2,1,11,1010001010110000101101001,1010001010110000101101100,1006,918,1,<lshift>,1
222,A,6,2,1,12,0111011100001101001010110,0111011100101100001010110,1005,1012,0,<rshift>,1
222,A,6,2,1,13,1001110100001000101111110,1001110100011000101110110,1005,764,1,<rshift>,0
222,A,6,2,1,14,1011001100100101111101000,1011001100110101110101000,1004,1644,0,<rshift>,1
222,A,6,2,1,15,0101001110001001100000111,0101000110001001100010111,1006,821,0,<rshift>,1
222,A,6,2,1,16,1110110010110100100001011,1110110010010100110001011,1006,1004,1,<rshift>,0
222,A,6,2,1,17,0010100101011101100100111,0011100001011101100100111,1004,1963,1,<lshift>,1
222,A,6,2,1,18,1110001100110011011000100,0110001100110011011010100,1005,982,0,<rshift>,1
222,A,6,2,1,19,0010001001111110001111001,0010001001111110011101001,1005,1260,0,<rshift>,1
222,A,6,2,1,20,1101100111001001000100110,1101100111001001000100101,1006,1278,0,<lshift>,0
222,A,6,2,1,21,0000110111110011100011001,0000110101110011100111001,1005,1291,1,<lshift>,1
222,A,6,2,1,22,0100001000101010101011101,0000001000111010101011101,1006,1477,0,<lshift>,0
222,A,6,2,1,23,0011011000100101101100111,0111011000100001101100111,1005,1044,0,<rshift>,1
222,A,6,2,1,24,1001101101100100101011100,1001101001100100101011110,1005,948,1,<lshift>,1
222,A,6,2,1,25,1000101101100011111000100,1000100101101011111000100,1006,991,0,<rshift>,1
222,A,6,2,1,26,1010101111100100001010110,1011101111100100001000110,1005,803,0,<rshift>,1
222,A,6,2,1,27,1100111000000111001110101,1101111000000011001110101,1005,1396,0,<rshift>,1
222,A,6,2,1,28,1010011111010011000010110,1011011111000011000010110,1005,1236,1,<lshift>,1
222,A,6,2,1,29,0110111001100001011010011,0110111001110001010010011,1005,836,1,<lshift>,1
222,A,6,2,1,30,1001001111000000101110011,1000011111000000101110011,1006,773,0,<rshift>,1
222,A,6,2,1,31,0101011000010111111010001,0001011000110111111010001,1005,971,1,<rshift>,0
222,A,6,2,1,32,0000011110001111101011100,0001011110001101101011100,1006,932,1,<lshift>,1
222,A,6,2,1,33,1001000110001011001110010,1001100110001001001110010,1006,1182,1,<lshift>,1
222,A,6,2,1,34,1010111100001010111001010,1010110100011010111001010,1006,836,1,<lshift>,1
222,A,6,2,1,35,1110111010010100010010000,1111111010010100010000000,1005,820,0,<lshift>,0
222,A,8,4,1,1,0111010010010101101010100,0111010110010101101010000,1005,792,0,<rshift>,1
222,A,8,4,1,2,0101000100011111110000010,0101001100011111110000000,1006,738,0,<rshift>,1
222,A,8,4,1,3,1011000101001011111010100,1011001101001011111010000,1005,1171,1,<rshift>,0
222,A,8,4,1,4,1010001011100100110011100,1010101011100000110011100,1005,2134,1,<lshift>,1
222,A,8,4,1,5,1001011000111110000101100,1000011000111110000111100,1005,1364,0,<rshift>,1
222,A,8,4,1,6,1001010111101101111000000,1010010111101101111000000,1005,1009,1,<rshift>,0
222,A,8,4,1,7,0010101001111001001001101,0010101000111001001011101,1005,1005,1,<rshift>,0
222,A,8,4,1,8,0111100010101111001000010,1111000010101111001000010,1005,1397,1,<lshift>,1
222,A,8,4,1,9,0101110010010110110110010,0101110010010011110110010,1004,949,1,<lshift>,1
222,A,8,4,1,10,0101101101100001000010011,0011101101100001000010011,1005,1012,0,<rshift>,1
222,A,8,4,1,11,0000011011010100001110110,0000011001011100001110110,1006,1181,1,<lshift>,1
222,A,8,4,1,12,0011001110011101101010010,0011001110011101101000011,1004,1060,1,<lshift>,1
222,A,8,4,1,13,1000010111011101100011000,0000010111011101100011100,1006,685,1,<lshift>,1
222,A,8,4,1,14,1111110000110010010001000,0111110000110010010101000,1006,1781,0,<rshift>,1
222,A,8,4,1,15,1000001111100010001100110,1000001101100010011100110,1006,1099,1,<lshift>,1
222,A,8,4,1,16,0100011010110110011011100,0100011010110010011011101,1004,797,0,<lshift>,0
222,A,8,4,1,17,0000011001011011010110101,0000011101001011010110101,1006,1452,1,<lshift>,1
222,A,8,4,1,18,0001010101011000010011011,0001010101011100000011011,1006,747,1,<lshift>,1
222,A,8,4,1,19,1101000110110100100111000,1101000110110100100110001,1006,678,0,<lshift>,0
222,A,8,4,1,20,1100001110101101101010100,1100001110101001101010110,1005,963,1,<lshift>,1
222,A,8,4,1,21,1011000111101001101010000,1011000101101001101110000,1006,1110,1,<lshift>,1
222,A,8,4,1,22,0011110010100011110000110,1011100010100011110000110,1006,1381,0,<lshift>,0
222,A,8,4,1,23,1001010010101111000001101,1001010010101011000001111,1006,957,1,<lshift>,1
222,A,8,4,1,24,0011110011111010010000011,0011110011101010110000011,1006,2506,1,<lshift>,1
222,A,8,4,1,25,1010101100101011101100010,0010101100101011111100010,1005,884,0,<rshift>,1
222,A,8,4,1,26,1110001101001110000101000,1110001001001110100101000,1006,1149,1,<rshift>,0
222,A,8,4,1,27,1101001100100101100110011,1001001100110101100110011,1005,909,0,<rshift>,1
222,A,8,4,1,28,0111110011011100000101100,0111111011011000000101100,1005,1733,1,<lshift>,1
222,A,8,4,1,29,1001001011011110000110110,1001101010011110000110110,1006,921,1,<lshift>,1
222,A,8,4,1,30,0100010101001000010111111,0100010101101000010110111,1006,1037,0,<lshift>,0
222,A,8,4,1,31,1011101001010001000011100,1011101001010000001011100,1006,1525,0,<lshift>,0
222,A,8,4,1,32,0010011011100101101001110,0010011010100101101001111,1005,1590,0,<rshift>,1
222,A,8,4,1,33,0000101101110110010010101,0000111101110100010010101,1005,1701,1,<lshift>,1
222,A,8,4,1,34,1000011000110011111000001,1000011000110011101000101,1006,1172,1,<lshift>,1
222,A,8,4,1,35,1111000010110000011000101,1111000011010000011000101,1006,886,0,<rshift>,1
222,A,9,1,5,1,0100110100101011011011001,0101110100101011011001001,1006,1109,1,<lshift>,1
222,A,9,1,5,2,1100000111000001110010111,1100010110000001110010111,1006,1346,1,<lshift>,1
222,A,9,1,5,3,1011101000011011001110001,1011101000111011001010001,1006,1164,1,<lshift>,1
222,A,9,1,5,4,0110101001001110010101011,0110101000001110010111011,1005,772,0,<rshift>,1
222,A,9,1,5,5,0111010001001110101100000,0111110001001110101000000,1006,758,0,<rshift>,1
222,A,9,1,5,6,1100110100100010100001011,1000110101100010100001011,1006,1133,0,<rshift>,1
222,A,9,1,5,7,0001100110110010111110000,0001100010110011111110000,1006,731,0,<rshift>,1
222,A,9,1,5,8,1001010111001100000011100,1001010101101100000011100,1006,926,1,<lshift>,1
222,A,9,1,5,9,1100110111001001000110010,1100110111000001000111010,1005,692,1,<lshift>,1
222,A,9,1,5,10,1001111010000001110101110,1001111010000000110111110,1005,1861,0,<rshift>,1
222,A,9,1,5,11,0110111000001100011101000,0100111000101100011101000,1005,828,1,<lshift>,1
222,A,9,1,5,12,0100001011101111001110001,0100001011101101001111001,1006,2588,0,<lshift>,0
222,A,9,1,5,13,0100101110010101010101011,0100101100010101010101111,1005,916,0,<rshift>,1
222,A,9,1,5,14,1011000000101011010110101,1011000010001011010110101,1005,1124,1,<lshift>,1
222,A,9,1,5,15,0010101010000011010001111,0011101010000011000001111,1006,926,1,<lshift>,1
222,A,9,1,5,16,1101000101100100100111001,1001000101110100100111001,1005,2076,1,<rshift>,0
222,A,9,1,5,17,1001011010101100011000101,1000011010101100111000101,1006,724,1,<lshift>,1
222,A,9,1,5,18,1100011101011100001010101,1100111101011100001000101,1004,1316,0,<lshift>,0
222,A,9,1,5,19,1100011011010000101100001,1100010011010000101100101,1006,942,1,<lshift>,1
222,A,9,1,5,20,0100111001010111000011011,0100111001110101000011011,1005,948,0,<rshift>,1
222,A,9,1,5,21,0111000011011011000010100,0111000001011011000010110,1006,1485,0,<rshift>,1
222,A,9,1,5,22,1111100000100010011110101,1011100000100110011110101,1005,1022,1,<rshift>,0
222,A,9,1,5,23,1101001100010011100100011,1110001100010011100100011,1005,1019,1,<lshift>,1
222,A,9,1,5,24,0111011110100001010100001,0111001111100001010100001,1005,1262,0,<rshift>,1
222,A,9,1,5,25,1101111000001001101010000,1101011010001001101010000,1006,1357,1,<lshift>,1
222,A,9,1,5,26,1000010110011110001100001,1000010110011010001110001,1006,843,0,<rshift>,1
222,A,9,1,5,27,0110100110010000011111011,0010100110010000011111111,1005,1205,1,<lshift>,1
222,A,9,1,5,28,0110010000000111111101110,0010010000000111111111110,1006,1131,1,<lshift>,1
222,A,9,1,5,29,0000010001111011110110001,0000010001011011110110101,1006,796,0,<rshift>,1
222,A,9,1,5,30,0001011001101110001111001,0001111000101110001111001,1005,877,0,<rshift>,1
222,A,9,1,5,31,1001001100101100010001110,1001001100101100000011110,1006,1006,1,<lshift>,1
222,A,9,1,5,32,0111100000010010000011111,0101100000010011000011111,1006,838,1,<lshift>,1
222,A,9,1,5,33,0100010011010011011100101,0100010101010011011100101,1007,852,0,<rshift>,1
222,A,9,1,5,34,0101010010010110100100011,0101110010010010100100011,1006,1398,1,<lshift>,1
222,A,9,1,5,35,1000011111001100011010000,1100011111001100001010000,1005,957,1,<lshift>,1
2JT,A,1,2,7,1,1100100101011101010101000,1100100101010111010101000,1005,6320,0,<rshift>,1
2JT,A,1,2,7,2,1100011101001001110010110,1100011111000001110010110,1006,866,1,<lshift>,1
2JT,A,1,2,7,3,0100010010110001110011110,0100010010110001100011111,1005,917,0,<rshift>,1
2JT,A,1,2,7,4,0000010011110111100011101,0000010011110011100111101,1006,908,0,<rshift>,1
2JT,A,1,2,7,5,0011001110011000101011001,0011011010011000101011001,1005,1773,0,<rshift>,1
2JT,A,1,2,7,6,1001111010001101000011101,1001101010101101000011101,1006,1811,1,<lshift>,1
2JT,A,1,2,7,7,0100110001001101001100011,0100110001100101001100011,1006,1052,1,<lshift>,1
2JT,A,1,2,7,8,0101100010101101000011011,0101101010001101000011011,1005,829,1,<lshift>,1
2JT,A,1,2,7,9,0101111101000001010111001,0101111101000100010111001,1005,2004,1,<lshift>,1
2JT,A,1,2,7,10,1011101000101010100100011,1011101010101010100100001,1006,1661,1,<lshift>,1
2JT,A,1,2,7,11,0100101011001101101010010,0100101011000101101011010,1006,916,1,<lshift>,1
2JT,A,1,2,7,12,0000011111101011101101000,0000010111101011101101100,1005,1084,1,<lshift>,1
2JT,A,1,2,7,13,0010100100011011111001110,0010100110011010111001110,1006,986,0,<rshift>,1
2JT,A,1,2,7,14,0010101010010011011001100,0000111010010011011001100,1006,910,1,<lshift>,1
2JT,A,1,2,7,15,0011101011110101000101001,0011101111110100000101001,1005,891,0,<rshift>,1
2JT,A,1,2,7,16,1010011110101010100010100,1011011110101010000010100,1005,861,0,<rshift>,1
2JT,A,1,2,7,17,1111011100001100100010101,1111011000001100110010101,1005,843,0,<rshift>,1
2JT,A,1,2,7,18,1001110001000100111011110,1001110001001100101011110,1005,2301,0,<rshift>,1
2JT,A,1,2,7,19,0011011001100100010111001,0011101001100100010111001,1006,2133,1,<rshift>,0
2JT,A,1,2,7,20,0001101010000101101001110,0000101011000101101001110,1006,2557,1,<lshift>,1
2JT,A,1,2,7,21,0000011110100001101110101,0000011110100000101111101,1006,1820,0,<rshift>,1
2JT,A,1,2,7,22,1100101110110001001111000,1110100110110001001111000,1006,2539,1,<lshift>,1
2JT,A,1,2,7,23,0110110101010011000011011,0110110101010011001011010,1005,3996,1,<lshift>,1
2JT,A,1,2,7,24,0011000011110101001001011,0011000011110101100001011,1005,1038,1,<lshift>,1
2JT,A,1,2,7,25,0110011000101001000111111,1010011000101001000111111,1005,1676,0,<rshift>,1
2JT,A,1,2,7,26,0000001111110010111011010,0000001111110100111011010,1005,1035,1,<rshift>,0
2JT,A,1,2,7,27,1101100110101001101000001,1111100110101000101000001,1006,1022,0,<rshift>,1
2JT,A,1,2,7,28,0000001101110111010100001,0000001101110111010101000,1005,779,1,<rshift>,0
2JT,A,1,2,7,29,1010000011101000010111011,1010001011101000010111001,1006,934,1,<rshift>,0
2JT,A,1,2,7,30,1011110001000101110100001,1011110001000001110100011,1006,1270,1,<lshift>,1
2JT,A,1,2,7,31,1000101001000111110100110,1100101000000111110100110,1006,1092,0,<rshift>,1
2JT,A,1,2,7,32,0101100111010010100101110,1101100111010010100100110,1005,1518,1,<lshift>,1
2JT,A,1,2,7,33,0001111001001001011110000,0001111001000101011110000,1006,1068,0,<rshift>,1
2JT,A,1,2,7,34,0111010111100010101000011,0111110111100010001000011,1005,828,0,<rshift>,1
2JT,A,1,2,7,35,0110010011100110110101001,0110011011100110010101001,1005,1427,1,<lshift>,1
2JT,A,2,3,6,1,1110010001001101101110000,1010010001001101101110001,1006,1310,1,<lshift>,1
2JT,A,2,3,6,2,0110000011011011010111100,0110000111011011010011100,1005,1834,1,<lshift>,1
2JT,A,2,3,6,3,1001100011011001010101011,1001100011011001110001011,1006,1268,0,<rshift>,1
2JT,A,2,3,6,4,1011100101110110010100100,1010100101110110110100100,1006,1203,1,<lshift>,1
2JT,A,2,3,6,5,1101100110100001011011000,1101000110101001011011000,1005,771,1,<lshift>,1
2JT,A,2,3,6,6,0111010001011001000011111,0011010101011001000011111,1004,2260,0,<rshift>,1
2JT,A,2,3,6,7,1100000000101001111001110,1100000100101001110001110,1006,821,1,<lshift>,1
2JT,A,2,3,6,8,1000000001111100110101101,1000000001111000110111101,1006,822,1,<lshift>,1
2JT,A,2,3,6,9,0111101100001010000001110,0101111100001010000001110,1006,1980,1,<lshift>,1
2JT,A,2,3,6,10,1101110101010101100100100,1101100101010101110100100,1005,756,0,<lshift>,0
2JT,A,2,3,6,11,1110011010010000111010011,1110011010110000111010010,1006,1452,1,<rshift>,0
2JT,A,2,3,6,12,1110100010001100101010111,1111100010001100001010111,1005,901,1,<lshift>,1
2JT,A,2,3,6,13,0111110101100011001000011,0011110101100011101000011,1005,1427,0,<rshift>,1
2JT,A,2,3,6,14,1110001010111010010110010,1100001010111011010110010,1004,1588,0,<rshift>,1
2JT,A,2,3,6,15,1110010011101001000100100,1110010111101001000100000,1006,853,0,<rshift>,1
2JT,A,2,3,6,16,1101011010011100100000010,1111011010011100000000010,1005,932,0,<rshift>,1
2JT,A,2,3,6,17,1011100101101011010000001,1011100101101010010010001,1006,1871,1,<rshift>,0
2JT,A,2,3,6,18,1000011011101010010111010,1000001011101010010111110,1005,738,0,<rshift>,1
2JT,A,2,3,6,19,1010000110000010111110010,1110000110000010111010010,1005,773,1,<lshift>,1
2JT,A,2,3,6,20,1000001010101110011010010,1000101010101110001010010,1006,893,1,<lshift>,1
2JT,A,2,3,6,21,0111001011111000100101000,0111001011111100100100000,1006,693,0,<rshift>,1
2JT,A,2,3,6,22,0010011100011100101100101,0110011100011100101000101,1005,1140,0,<rshift>,1
2JT,A,2,3,6,23,0110110100100010110101100,0110110100000010110101110,1005,1221,1,<lshift>,1
2JT,A,2,3,6,24,1001110011101000100101011,1001110011101001100101001,1005,1828,1,<rshift>,0
2JT,A,2,3,6,25,0100001111110010010001101,0101001111110010000001101,1006,1213,0,<lshift>,0
2JT,A,2,3,6,26,0101101000111101100001000,1101101000111100100001000,1006,983,0,<rshift>,1
2JT,A,2,3,6,27,1000000111110000100011110,1000000111110001100001110,1006,660,1,<rshift>,0
2JT,A,2,3,6,28,1000010000111110101100100,1000011000111110001100100,1006,862,0,<rshift>,1
2JT,A,2,3,6,29,0001100110101100010110101,0001100110100110010110101,1006,766,1,<lshift>,1
2JT,A,2,3,6,30,0001000001111011010010110,0001000001111011010110010,1006,931,0,<rshift>,1
2JT,A,2,3,6,31,0100000001111011011001100,0101000001011011011001100,1006,1135,1,<lshift>,1
2JT,A,2,3,6,32,0111100110001001101101001,0111100110011001101100001,1005,885,0,<rshift>,1
2JT,A,2,3,6,33,1011001110110100010110001,1011001110110100010010101,1005,795,0,<rshift>,1
2JT,A,2,3,6,34,1110011110000010100000101,1110001110000010110000101,1005,830,0,<rshift>,1
2JT,A,2,3,6,35,1100111000110100100110100,1100111100110100000110100,1006,1574,1,<lshift>,1
2JT,A,3,4,3,1,0000110001110110001011100,0000110011110110001010100,1006,1983,1,<lshift>,1
2JT,A,3,4,3,2,0000110111011011101000100,0000110111011001101010100,1006,1419,0,<lshift>,0
2JT,A,3,4,3,3,1100010010101011101111000,1100110010101011101011000,1005,1252,0,<lshift>,0
2JT,A,3,4,3,4,0000010111110001000011011,0000011111110001000011001,1005,844,1,<lshift>,1
2JT,A,3,4,3,5,1110000110010111100000001,1010000110010111110000001,1006,926,1,<lshift>,1
2JT,A,3,4,3,6,1101000010101101100011011,0101000010101101100011111,1005,1723,0,<rshift>,1
2JT,A,3,4,3,7,0000110001110110010000111,0000110011110110010000110,1006,950,0,<rshift>,1
2JT,A,3,4,3,8,0000101010110001110001011,0000101010100011110001011,1006,1516,1,<lshift>,1
2JT,A,3,4,3,9,0101110010110011000010001,0111110010110010000010001,1006,1334,0,<rshift>,1
2JT,A,3,4,3,10,1111001000101100100000110,1101001001101100100000110,1006,884,0,<rshift>,1
2JT,A,3,4,3,11,1111001100110010100000011,1111001101100010100000011,1006,820,1,<lshift>,1
2JT,A,3,4,3,12,0010010011111011110011000,0010001011111011110011000,1005,1110,1,<rshift>,0
2JT,A,3,4,3,13,0110010000010111100111101,0110010000011111000111101,1006,1162,0,<rshift>,1
2JT,A,3,4,3,14,0001101110100110110011000,1001100110100110110011000,1004,1061,1,<lshift>,1
2JT,A,3,4,3,15,0111010011011011010000100,0111110001011011010000100,1006,879,1,<lshift>,1
2JT,A,3,4,3,16,1100001101110000101001010,1100001001110000101011010,1006,852,0,<rshift>,1
2JT,A,3,4,3,17,0011001110101100111010100,0011001110101110101010100,1005,604,0,<rshift>,1
2JT,A,3,4,3,18,1000101011101100011001100,1000110011101100011001100,1006,733,0,<lshift>,0
2JT,A,3,4,3,19,1100011011000101000011100,0100011111000101000011100,1006,709,1,<lshift>,1
2JT,A,3,4,3,20,1111111001100000001001101,1111011001100000011001101,1005,789,0,<rshift>,1
2JT,A,3,4,3,21,0001000101110111001110011,0101000001110111001110011,1005,795,0,<lshift>,0
2JT,A,3,4,3,22,0011110000000111111110010,0011110001000111111100010,1005,797,1,<rshift>,0
2JT,A,3,4,3,23,1010001000100000011111011,1010000000100001011111011,1006,613,1,<lshift>,1
2JT,A,3,4,3,24,1100011010010111100001100,0100111010010111100001100,1006,828,0,<rshift>,1
2JT,A,3,4,3,25,0010000101101110101111100,0010000101101110111101100,1005,1004,1,<rshift>,0
2JT,A,3,4,3,26,1001011001011100010001111,1011011001011100010001011,1005,789,0,<lshift>,0
2JT,A,3,4,3,27,1011010001001000111110000,1011010100001000111110000,1006,268,0,<rshift>,1
2JT,A,3,4,3,28,0000111011000011110011011,0000111011001011110001011,1005,1277,1,<lshift>,1
2JT,A,3,4,3,29,0110111011100010010010010,0010111111100010010010010,1006,709,0,<lshift>,0
2JT,A,3,4,3,30,1110001011111010100000000,1100001011111010100100000,1006,1534,1,<lshift>,1
2JT,A,3,4,3,31,1011101001001010001110010,1010101001001010011110010,1006,2020,0,<rshift>,1
2JT,A,3,4,3,32,1001100010110100001000111,1101100010110100000000111,1006,877,1,<lshift>,1
2JT,A,3,4,3,33,0110001001010101101101000,0110001001000101111101000,1006,854,0,<rshift>,1
2JT,A,3,4,3,34,0111110010101101001001100,0111110010101100001001110,1005,1828,0,<lshift>,0
2JT,A,3,4,3,35,0001010010011100111101011,0001010010011100111001111,1005,709,1,<lshift>,1
2JT,A,4,1,6,1,1110110010010000101010001,1110100010110000101010001,1006,721,1,<lshift>,1
2JT,A,4,1,6,2,0011100111001100100101011,0001110111001100100101011,1005,674,1,<rshift>,0
2JT,A,4,1,6,3,0001110011011011000010111,0001110011011010010010111,1005,284,1,<lshift>,1
2JT,A,4,1,6,4,0011010100111100101000010,0011010100111101001000010,1006,1133,1,<lshift>,1
2JT,A,4,1,6,5,1000011111001000101101001,1000010111001000101101011,1005,767,0,<rshift>,1
2JT,A,4,1,6,6,1111100111000011000001000,1011101111000011000001000,1006,1053,1,<lshift>,1
2JT,A,4,1,6,7,0010010001101100101001011,0010010001001100111001011,1006,1293,0,<lshift>,0
2JT,A,4,1,6,8,0000100000011101111100110,0100100000011101111100100,1006,1099,1,<lshift>,1
2JT,A,4,1,6,9,1000011110010011001101001,1000011110010001001111001,1005,1102,1,<rshift>,0
2JT,A,4,1,6,10,0110011110001100011110000,0110011110001100010110100,1006,1717,1,<rshift>,0
2JT,A,4,1,6,11,1111001001110000100011101,1111000011110000100011101,1005,668,1,<lshift>,1
2JT,A,4,1,6,12,0100111110111000110101000,0100111110111000110001100,1005,668,0,<lshift>,0
2JT,A,4,1,6,13,1111000011010100000100111,1111001011010100000100011,1006,917,1,<rshift>,0
2JT,A,4,1,6,14,1011100101100000100111001,1010100101101000100111001,1005,877,1,<lshift>,1
2JT,A,4,1,6,15,0001010111101011010010000,1001010111100011010010000,1006,885,1,<lshift>,1
2JT,A,4,1,6,16,1101010011111000010100011,1101000111111000010100011,1005,981,0,<rshift>,1
2JT,A,4,1,6,17,1110101111101000100100100,1111101111101000100000100,1005,1402,0,<rshift>,1
2JT,A,4,1,6,18,1000101001010000101100111,1000100101010000101100111,1006,822,0,<rshift>,1
2JT,A,4,1,6,19,0100111101011001010010101,0110101101011001010010101,1005,1072,0,<lshift>,0
2JT,A,4,1,6,20,1100100010110010011011000,1100100011100010011011000,1006,574,1,<lshift>,1
2JT,A,4,1,6,21,1000100001011010010011111,1000100001011110000011111,1006,701,0,<rshift>,1
2JT,A,4,1,6,22,0010110111101000100100110,0010100111101000101100110,1006,699,0,<lshift>,0
2JT,A,4,1,6,23,1111001010111101000000110,0111001010111101000010110,1005,668,1,<rshift>,0
2JT,A,4,1,6,24,1000110100011001010110001,1000110101011001010010001,1006,1006,0,<rshift>,1
2JT,A,4,1,6,25,0001110111000010011001110,0001110111000011011000110,1004,732,0,<lshift>,0
2JT,A,4,1,6,26,0011101011110000011011000,0011101011110010011001000,1006,854,1,<rshift>,0
2JT,A,4,1,6,27,1010101000111011101000010,1010101000111010101000011,1006,453,1,<lshift>,1
2JT,A,4,1,6,28,0001111011000010001111010,0010111011000010001111010,1006,1252,0,<rshift>,1
2JT,A,4,1,6,29,0011001100001111001100100,0011001110001011001100100,1006,1231,1,<lshift>,1
2JT,A,4,1,6,30,1110011101101011010001000,1100011101101011010011000,1005,1061,1,<lshift>,1
2JT,A,4,1,6,31,0010111101000101110111000,0000111101001101110111000,1005,1435,0,<rshift>,1
2JT,A,4,1,6,32,1001100100001001011001111,1001000100101001011001111,1005,2029,1,<lshift>,1
2JT,A,4,1,6,33,0000001110111011011010001,0000001010111111011010001,1006,1789,1,<lshift>,1
2JT,A,4,1,6,34,1001111010100100001010011,1001011010100100001011011,1005,1900,0,<rshift>,1
2JT,A,4,1,6,35,0000011111001010001011011,0001010111001010001011011,1006,1334,1,<rshift>,0
2JT,A,5,2,7,1,1011011100100000010001011,1011011101000000010001011,1006,936,0,<rshift>,1
2JT,A,5,2,7,2,0010100000110001110111101,0010001000110001110111101,1006,716,1,<lshift>,1
2JT,A,5,2,7,3,0011100011100000101010110,0010100011100000111010110,1005,885,0,<rshift>,1
2JT,A,5,2,7,4,0011110001000010011011100,0011110011000000011011100,1006,925,0,<rshift>,1
2JT,A,5,2,7,5,1100010010010110011010101,0100110010010110011010101,1006,773,0,<lshift>,0
2JT,A,5,2,7,6,1101101001000011001010001,1100101001010011001010001,1006,797,0,<rshift>,1
2JT,A,5,2,7,7,0101001010111001100011110,0101001010111001101011010,1004,805,0,<rshift>,1
2JT,A,5,2,7,8,0000011011111001110001011,0000011011110001110001111,1005,756,0,<rshift>,1
2JT,A,5,2,7,9,1010001100001110101011101,1010001100101110101010101,1005,820,0,<rshift>,1
2JT,A,5,2,7,10,1101010110111010010101000,1101010110101010110101000,1005,627,1,<rshift>,0
2JT,A,5,2,7,11,1110000101000110011110011,1100000101010110011110011,1005,644,0,<rshift>,1
2JT,A,5,2,7,12,0001100110010111110101001,0001101110010111110100001,1005,1260,1,<lshift>,1
2JT,A,5,2,7,13,0101100100011010011001010,0101100100011010011010010,1006,2125,1,<rshift>,0
2JT,A,5,2,7,14,1110010101110011001000011,0110110101110011001000011,1005,1893,1,<rshift>,0
2JT,A,5,2,7,15,1110000101000101010101011,1110001101000101000101011,1006,572,0,<rshift>,1
2JT,A,5,2,7,16,0011011111000110011001001,0011011111001110001001001,1005,771,0,<lshift>,0
2JT,A,5,2,7,17,1000110010100101011110001,1000110010100101011101001,1006,781,1,<lshift>,1
2JT,A,5,2,7,18,1101101011011001000010011,1111001011011001000010011,1005,717,0,<rshift>,1
2JT,A,5,2,7,19,0110110011100011100000110,0010110011110011100000110,1006,900,0,<rshift>,1
2JT,A,5,2,7,20,1011001000110110001100100,1011001100010110001100100,1006,758,0,<rshift>,1
2JT,A,5,2,7,21,0100001100110101110011011,0100001110110101110011001,1005,860,1,<lshift>,1
2JT,A,5,2,7,22,0001011011001101110000010,0000011011001101110000011,1006,597,1,<lshift>,1
2JT,A,5,2,7,23,1101010100001011100011011,1101010100001011000011111,1004,2211,0,<rshift>,1
2JT,A,5,2,7,24,0100011101011101101010001,0100011111011101101010000,1005,1019,0,<rshift>,1
2JT,A,5,2,7,25,0011011101100101000101000,0011011101110101000100000,1005,518,1,<rshift>,0
2JT,A,5,2,7,26,1000001011000111000011101,1000001011001111000010101,1006,1166,1,<lshift>,1
2JT,A,5,2,7,27,0011001000100101011111110,0011001001100101011101110,1005,1188,0,<lshift>,0
2JT,A,5,2,7,28,0001111101100001001001110,0001111101000011001001110,1006,580,1,<lshift>,1
2JT,A,5,2,7,29,0101000101111010011010011,1101000101111010011010001,1006,733,0,<rshift>,1
2JT,A,5,2,7,30,0010101001001111100100010,1010001001001111100100010,1006,764,0,<rshift>,1
2JT,A,5,2,7,31,1011101100001110000011100,1011001100001110010011100,1006,1678,0,<rshift>,1
2JT,A,5,2,7,32,1011011001011011100101000,1011011001001011100101010,1005,998,0,<rshift>,1
2JT,A,5,2,7,33,1011001110101010111001000,1111001110101010110001000,1005,717,0,<rshift>,1
2JT,A,5,2,7,34,1111110000110001110001001,1111110000110001110101000,1005,955,0,<lshift>,0
2JT,A,5,2,7,35,0110000011000111101010011,0110000011010111101010010,1006,750,1,<lshift>,1
2JT,A,6,3,5,1,0100110010110111010000111,0100110010110111010001011,1006,1277,0,<lshift>,0
2JT,A,6,3,5,2,1001111100011010011010010,1001111101001010011010010,1005,1105,0,<rshift>,1
2JT,A,6,3,5,3,1010101000100101000101110,1011101000100101000101010,1005,1812,0,<rshift>,1
2JT,A,6,3,5,4,1111000111101000001000010,1011000111101100001000010,1007,924,0,<rshift>,1
2JT,A,6,3,5,5,0011010001101011010101001,0011010001101011010101100,1005,1571,1,<rshift>,0
2JT,A,6,3,5,6,0001111110100000111001000,0001101110100010111001000,1006,1533,1,<rshift>,0
2JT,A,6,3,5,7,0111010010100111101000101,0101010010100111101100101,1005,636,0,<lshift>,0
2JT,A,6,3,5,8,0000100011100101001011110,0010100011100101001001110,1006,916,0,<rshift>,1
2JT,A,6,3,5,9,0001110110010101100101100,0011100110010101100101100,1005,1662,1,<lshift>,1
2JT,A,6,3,5,10,1100110010101101110100010,1101110010001101110100010,1004,2100,0,<lshift>,0
2JT,A,6,3,5,11,1111000001010011101100001,1111000101010011101000001,1005,2,1,<lshift>,1
2JT,A,6,3,5,12,0000011111110100010111001,0000011111110100001111001,1004,1014,1,<lshift>,1
2JT,A,6,3,5,13,1110000110101000001110101,1110001110101000001110100,1006,1117,1,<rshift>,0
2JT,A,6,3,5,14,1100110100010100011010101,1100110100010101011010001,1006,1085,1,<lshift>,1
2JT,A,6,3,5,15,0101000000101110101101100,0001000001101110101101100,1006,877,1,<lshift>,1
2JT,A,6,3,5,16,1110101101000001010011100,1100101101000001110011100,1005,1029,0,<rshift>,1
2JT,A,6,3,5,17,0110100111001011000010010,0010100111011011000010010,1005,910,1,<lshift>,1
2JT,A,6,3,5,18,0001111101011100110110000,1001101101011100110110000,1004,947,1,<lshift>,1
2JT,A,6,3,5,19,1001110110110001001001100,1000110110110001011001100,1005,908,1,<lshift>,1
2JT,A,6,3,5,20,1011110100010001110001101,1011010110010001110001101,1004,1308,0,<lshift>,0
2JT,A,6,3,5,21,0001001001100101111001101,0001001001101101111001100,1006,996,0,<rshift>,1
2JT,A,6,3,5,22,1001000110101101110100000,1001010110101001110100000,1006,957,1,<lshift>,1
2JT,A,6,3,5,23,1110001101000001100100011,1110001101100001100100001,1005,1197,1,<lshift>,1
2JT,A,6,3,5,24,0101010000011101100100101,0101010000010101100110101,1005,1189,0,<rshift>,1
2JT,A,6,3,5,25,1100111000001111110010010,1100111000100111110010010,1005,1731,0,<rshift>,1
2JT,A,6,3,5,26,0100110101000101001001111,0100110101010100001001111,1005,1718,1,<lshift>,1
2JT,A,6,3,5,27,1111011001011011100010000,1111011001010011100010100,1004,1027,1,<lshift>,1
2JT,A,6,3,5,28,0100100011110000101110010,0101100011110000100110010,1006,1461,0,<rshift>,1
2JT,A,6,3,5,29,1101011000111001001101010,1101011000111101001100010,1005,965,1,<lshift>,1
2JT,A,6,3,5,30,1000101010101000111010110,1000001110101000111010110,1006,1069,0,<lshift>,0
2JT,A,6,3,5,31,0100111000011110010100110,1100111000010110010100110,1006,1060,1,<lshift>,1
2JT,A,6,3,5,32,1111011000100100111000110,0111011001100100111000110,1004,1678,1,<lshift>,1
2JT,A,6,3,5,33,0010111001001101010111100,0010111001001100011111100,1005,1051,0,<rshift>,1
2JT,A,6,3,5,34,0001011111100011101100100,0011011111100011001100100,1004,1053,1,<lshift>,1
2JT,A,6,3,5,35,1111010010110000010101101,1111010000110100010101101,1005,1116,1,<lshift>,1
2JT,A,7,4,1,1,1010100010011101011011010,1010100010011101011001011,1006,856,0,<rshift>,1
2JT,A,7,4,1,2,0101010101001010111110000,0101000101101010111110000,1006,2033,0,<rshift>,1
2JT,A,7,4,1,3,0100110101011010101100010,0000110101011010101101010,1005,966,0,<rshift>,1
2JT,A,7,4,1,4,0010001111000100111001011,0010100111000100111001011,1006,692,1,<lshift>,1
2JT,A,7,4,1,5,0100100001101110011100101,0101100001101110010100101,1005,909,0,<rshift>,1
2JT,A,7,4,1,6,1100001110101101110001100,1000001111101101110001100,1005,1090,0,<lshift>,0
2JT,A,7,4,1,7,1011100001100110100011000,1011110001100110100010000,1006,709,0,<rshift>,1
2JT,A,7,4,1,8,1101110001100111100100100,1101110011100110100100100,1005,725,0,<rshift>,1
2JT,A,7,4,1,9,0011000011101110100001001,0011000101101110100001001,1006,838,0,<rshift>,1
2JT,A,7,4,1,10,0110001101101011001100110,0110000101101011011100110,1005,676,0,<rshift>,1
2JT,A,7,4,1,11,1010000100010101001011101,1110000100010101001001101,1005,652,0,<rshift>,1
2JT,A,7,4,1,12,1001010001111100100101100,1011010001111100000101100,1005,758,0,<rshift>,1
2JT,A,7,4,1,13,0111100010000010100010111,0111100110000010000010111,1006,484,0,<lshift>,0
2JT,A,7,4,1,14,0010000100101110100011110,0110000100101110000011110,1006,789,1,<lshift>,1
2JT,A,7,4,1,15,1110001100111010110010100,1110001100111010100010101,1005,668,0,<rshift>,1
2JT,A,7,4,1,16,0110011001101100110001101,0110001001101100111001101,1005,613,0,<rshift>,1
2JT,A,7,4,1,17,0100001100111010101010100,1100001100111010001010100,1006,774,0,<rshift>,1
2JT,A,7,4,1,18,0001011010101001101100100,0001011010011001101100100,1006,805,1,<rshift>,0
2JT,A,7,4,1,19,0111111000100110011000100,0110111000110110011000100,1006,2822,1,<lshift>,1
2JT,A,7,4,1,20,1011010010000101011101110,1011010010000101111100110,1005,970,0,<rshift>,1
2JT,A,7,4,1,21,0111110010010011010110100,0011111010010011010110100,1005,653,1,<rshift>,0
2JT,A,7,4,1,22,1010000000010110111001111,1110000000010110011001111,1006,870,0,<rshift>,1
2JT,A,7,4,1,23,0000110100100111110110101,0000110100000111110111101,1006,602,0,<rshift>,1
2JT,A,7,4,1,24,0110111100011001001101000,0110110100011101001101000,1006,686,0,<rshift>,1
2JT,A,7,4,1,25,0010101010111100100110110,0010101010111100101100110,1005,947,1,<lshift>,1
2JT,A,7,4,1,26,0100001011100101110010011,0100001011100101111010001,1005,572,1,<lshift>,1
2JT,A,7,4,1,27,0110001110001011000011100,0110000110001111000011100,1005,541,0,<rshift>,1
2JT,A,7,4,1,28,1001110110000010110000111,1001111100000010110000111,1006,677,1,<lshift>,1
2JT,A,7,4,1,29,1110110100100000110010101,0110110100110000110010101,1006,1053,0,<lshift>,0
2JT,A,7,4,1,30,0111010010001001101111010,0111010010001001001111110,1005,699,1,<rshift>,0
2JT,A,7,4,1,31,0100111110110010011100010,0100111100110010011100110,1005,1068,0,<rshift>,1
2JT,A,7,4,1,32,0001011010011011101010010,0001011010011010111010010,1006,637,1,<lshift>,1
2JT,A,7,4,1,33,0011110100000111100001100,0011010100001111100001100,1006,606,1,<lshift>,1
2JT,A,7,4,1,34,1001100000110100110110001,0001100001110100110110001,1006,951,1,<lshift>,1
2JT,A,7,4,1,35,0010001110111011000011000,0010001110110011000011001,1006,1086,1,<lshift>,1
2JT,A,8,1,4,1,0011001111001001111000110,0011001101001101111000110,1006,1391,1,<lshift>,1
2JT,A,8,1,4,2,1010001101101100010011100,1010001101101001010011100,1006,866,0,<rshift>,1
2JT,A,8,1,4,3,1100110010100010001010011,1100110010000010001110011,1006,645,0,<lshift>,0
2JT,A,8,1,4,4,0010000111010111001001001,0010000111010111100001001,1006,758,0,<rshift>,1
2JT,A,8,1,4,5,1000010011100101000101101,1000000011100101100101101,1006,717,1,<rshift>,0
2JT,A,8,1,4,6,0100100010111010111011100,0100100010111010111110100,1004,523,1,<lshift>,1
2JT,A,8,1,4,7,1110111000111100100010100,1100111000111100100010101,1005,1045,1,<lshift>,1
2JT,A,8,1,4,8,0010001001101010000110111,0010000001101010000111111,1006,549,1,<lshift>,1
2JT,A,8,1,4,9,0101101010011011101110000,0101101100011011101110000,1005,797,1,<rshift>,0
2JT,A,8,1,4,10,0001110001100110010101101,0000110001100111010101101,1006,644,1,<lshift>,1
2JT,A,8,1,4,11,0010001100100010110111110,0010001101100010100111110,1006,629,1,<rshift>,0
2JT,A,8,1,4,12,0110001100111110001010010,0110001100111111001010000,1006,998,0,<rshift>,1
2JT,A,8,1,4,13,1101100011110010000100100,1101100011111010000000100,1005,613,0,<lshift>,0
2JT,A,8,1,4,14,0110100101101001110110001,0110000101101001110110101,1004,748,1,<lshift>,1
2JT,A,8,1,4,15,0100101110101011001010001,0100101110101011000110001,1006,556,0,<rshift>,1
2JT,A,8,1,4,16,1001011111101001100010100,1001001111101101100010100,1006,2028,1,<lshift>,1
2JT,A,8,1,4,17,0110101100100101111010010,0110101110100101110010010,1005,1364,0,<lshift>,0
2JT,A,8,1,4,18,0010010001100101011111011,0000010001110101011111011,1005,1123,1,<lshift>,1
2JT,A,8,1,4,19,0110010010101010111100101,0010010010111010111100101,1005,2125,1,<rshift>,0
2JT,A,8,1,4,20,0100010111011010100110011,0100010111011010000111011,1006,1570,0,<lshift>,0
2JT,A,8,1,4,21,1110100000110001011001111,1110100000110001101001111,1004,1148,1,<lshift>,1
2JT,A,8,1,4,22,0011100101100110011000010,0011100100100110011100010,1006,1438,0,<rshift>,1
2JT,A,8,1,4,23,0100011110000111110010000,1100011100000111110010000,1006,1446,0,<rshift>,1
2JT,A,8,1,4,24,1001010010010010111110100,1001010010010010101110110,1006,1580,0,<lshift>,0
2JT,A,8,1,4,25,1111100011100000101000011,1011100011100010101000011,1006,1661,0,<rshift>,1
2JT,A,8,1,4,26,1101000000111010001011011,1101000000111110001011001,1006,1262,1,<lshift>,1
2JT,A,8,1,4,27,0000010011011110001100101,0000100011011110001100101,1006,1189,0,<rshift>,1
2JT,A,8,1,4,28,0011011011010101001101010,0011111011010101000101010,1005,715,0,<lshift>,0
2JT,A,8,1,4,29,1110011001101011110010000,1110011001101011101010000,1006,1603,0,<rshift>,1
2JT,A,8,1,4,30,0011110100010000110100101,1011110100010000010100101,1005,1445,0,<rshift>,1
2JT,A,8,1,4,31,1000000100110110011101101,1010000000110110011101101,1005,1113,0,<rshift>,1
2JT,A,8,1,4,32,0110111010000100011101110,0110111010000101011101010,1004,1404,0,<lshift>,0
2JT,A,8,1,4,33,0010011111100111000010010,1010011111100110000010010,1006,1494,1,<lshift>,1
2JT,A,8,1,4,34,0101111000110001011101010,0100111000110001011111010,1005,1771,0,<rshift>,1
2JT,A,8,1,4,35,0101010001111111010011000,0101110001111110010011000,1005,1299,0,<rshift>,1
3001,A,10,2,7,1,1001100111110001100011100,0001100111110001100111100,1008,1191,0,<rshift>,1
3001,A,10,2,7,2,0110011100100110101011000,0100011110100110101011000,1007,1295,0,<rshift>,1
3001,A,10,2,7,3,0110101001000100111110110,0110101001000001111110110,1007,1152,0,<rshift>,1
3001,A,10,2,7,4,0000100011011011000111100,0000110011011010000111100,1008,766,1,<lshift>,1
3001,A,10,2,7,5,0100100010111001110100010,0100101000111001110100010,1008,1606,0,<rshift>,1
3001,A,10,2,7,6,0000111110100111001100100,0000111110100111001000101,1007,865,1,<lshift>,1
3001,A,10,2,7,7,1100110010000001101100011,1100110010000001001101011,1007,1891,1,<lshift>,1
3001,A,10,2,7,8,1100101001001010010010011,1100101001000010011010011,1007,2326,1,<lshift>,1
3001,A,10,2,7,9,0111000001011101111000110,0101000001011101111010110,1007,965,1,<lshift>,1
3001,A,10,2,7,10,1100001100110000111001111,1100001110100000111001111,1007,821,0,<rshift>,1
3001,A,10,2,7,11,1010110011100001111000110,1010110011110001111000010,1006,3435,0,<rshift>,1
3001,A,10,2,7,12,1010110010110010110110000,1010110010010010110110001,1008,1633,0,<rshift>,1
3001,A,10,2,7,13,0011101110110000110101010,0010101110111000110101010,1008,1770,1,<lshift>,1
3001,A,10,2,7,14,1000100011000001110111011,0000100011010001110111011,1008,1137,0,<rshift>,1
3001,A,10,2,7,15,1000010110101101000101100,1000000110101101000101101,1007,1049,0,<rshift>,1
3001,A,10,2,7,16,0100100001010011001101110,0100100001011011001101010,1008,974,1,<lshift>,1
3001,A,10,2,7,17,1010011000001110110011100,1010011001001110010011100,1008,4703,0,<rshift>,1
3001,A,10,2,7,18,1111100110001010110001000,1111100110001100110001000,1008,1006,1,<lshift>,1
3001,A,10,2,7,19,0101011000001011101110001,0101011000101001101110001,1008,1596,0,<rshift>,1
3001,A,10,2,7,20,0110001001010001101110011,0110011001010001100110011,1007,1250,0,<rshift>,1
3001,A,10,2,7,21,1110000111101011011100000,1110000111101011001100001,1007,1029,0,<rshift>,1
3001,A,10,2,7,22,1101100110101000100110011,1101101110100000100110011,1007,3051,0,<rshift>,1
3001,A,10,2,7,23,1001101001010011010011100,1101101000010011010011100,1008,1361,0,<rshift>,1
3001,A,10,2,7,24,1000100010110011111000001,1100100010110011011000001,1006,2578,1,<lshift>,1
3001,A,10,2,7,25,0111100100001011011000100,0011101100001011011000100,1007,1312,0,<rshift>,1
3001,A,10,2,7,26,0110010101111010000100010,0110010101101010000110010,1006,900,0,<rshift>,1
3001,A,10,2,7,27,0111000001111001100011001,0111000001101001100011011,1008,1815,0,<rshift>,1
3001,A,10,2,7,28,1100100101110101010010011,1100000101110101010010111,1006,5511,1,<lshift>,1
3001,A,10,2,7,29,1010011011011001010001000,1010001011011101010001000,1006,2900,0,<rshift>,1
3001,A,10,2,7,30,0110000000111011110110101,0110100000111011100110101,1008,810,0,<rshift>,1
3001,A,10,2,7,31,1110000000101100101111011,1110000000101001101111011,1007,1846,1,<rshift>,0
3001,A,10,2,7,32,0011110001001011001000110,0011110000001011001001110,1006,2896,0,<rshift>,1
3001,A,10,2,7,33,0100100000110011000011111,0100100001110011000001111,1007,1479,1,<lshift>,1
3001,A,10,2,7,34,1101000010100011111011010,1101000010000011111011011,1008,1666,1,<lshift>,1
3001,A,10,2,7,35,1100001111100110101010001,1100001111000110101110001,1008,1012,1,<lshift>,1
3001,A,1,1,7,1,1000100000101101110110001,1000110000101001110110001,1007,6723,1,<lshift>,1
3001,A,1,1,7,2,1111011100001101000010100,1111001100001101000010101,1007,4429,1,<rshift>,0
3001,A,1,1,7,3,1001110110001000110101011,1001110110001000110001111,1006,2689,0,<rshift>,1
3001,A,1,1,7,4,0111110100000111111100000,0111110100000111110100001,1007,1231,0,<rshift>,1
3001,A,1,1,7,5,1111101001100010010001100,1111001101100010010001100,1008,2148,0,<rshift>,1
3001,A,1,1,7,6,0010100011101101001110000,0010100011111101001100000,1008,2100,1,<lshift>,1
3001,A,1,1,7,7,0100001101110110000011111,1100001101110110000011011,1008,1104,0,<rshift>,1
3001,A,1,1,7,8,1100001111011001010011001,1100001111010001010011101,1006,1090,0,<rshift>,1
3001,A,1,1,7,9,1111100001001110001000010,1011100001101110001000010,1006,1478,1,<lshift>,1
3001,A,1,1,7,10,1101101111100001000001101,1101100111100011000001101,1008,2801,0,<lshift>,0
3001,A,1,1,7,11,0101011101001010101000011,0101011111001010001000011,1008,2680,0,<rshift>,1
3001,A,1,1,7,12,0011001110001000110011111,0010011110001000110011111,1007,986,0,<rshift>,1
3001,A,1,1,7,13,0001001011101011000001111,0001001011101001010001111,1008,2736,1,<lshift>,1
3001,A,1,1,7,14,1101101100101001000101101,1101101110001001000101101,1007,2098,1,<lshift>,1
3001,A,1,1,7,15,0011110000011111010011000,0011110000011111010001100,1007,2769,0,<rshift>,1
3001,A,1,1,7,16,1000011011001000110111011,1000011010001000111111011,1007,1426,0,<rshift>,1
3001,A,1,1,7,17,1010101011100001001001101,1010011011100001001001101,1008,8055,1,<lshift>,1
3001,A,1,1,7,18,0010110011010100110011010,0010110011010010110011010,1008,1244,0,<rshift>,1
3001,A,1,1,7,19,0110011111110010100000110,0110010111110010110000110,1007,1094,1,<lshift>,1
3001,A,1,1,7,20,0101111001001010111001100,0100111001001010111101100,1007,2029,0,<rshift>,1
3001,A,1,1,7,21,1000010101001000101101101,1010010101001000001101101,1006,1298,1,<lshift>,1
3001,A,1,1,7,22,0011100010111101110010010,0010100010111111110010010,1007,902,1,<lshift>,1
3001,A,1,1,7,23,1110001010100110011001101,0110001010100110011101101,1007,1041,0,<rshift>,1
3001,A,1,1,7,24,0000100101100100101110110,0000100101100100100111110,1007,871,0,<rshift>,1
3001,A,1,1,7,25,0101101110001011000100101,0111100110001011000100101,1008,1035,1,<lshift>,1
3001,A,1,1,7,26,1011100000001111110110100,1011110000001101110110100,1008,1240,0,<rshift>,1
3001,A,1,1,7,27,0100101101000110101010101,0100111101000100101010101,1008,1443,1,<rshift>,0
3001,A,1,1,7,28,1110100100110100001110100,1110101100110100000110100,1007,752,1,<lshift>,1
3001,A,1,1,7,29,1100000100001010110011101,1100000100001010110111100,1006,1869,0,<lshift>,0
3001,A,1,1,7,30,1010100110110110010100100,1011100110100110010100100,1008,1082,1,<lshift>,1
3001,A,1,1,7,31,1010000110001011110100100,1010000010001011110110100,1007,1047,0,<rshift>,1
3001,A,1,1,7,32,1100101110010010010011100,1100111100010010010011100,1008,899,0,<rshift>,1
3001,A,1,1,7,33,0110111001010100101011000,0110111001010110100011000,1008,1650,1,<rshift>,0
3001,A,1,1,7,34,0100001101111011100000011,0110001101111011000000011,1008,1534,0,<lshift>,0
3001,A,1,1,7,35,1110001010000011100001011,1110001010000010100101011,1007,1717,0,<rshift>,1
3001,A,12,1,3,1,1111110100011000000011000,1111100100011010000011000,1007,1105,0,<rshift>,1
3001,A,12,1,3,2,1100001101011001011111000,1100011101010001011111000,1008,1016,0,<rshift>,1
3001,A,12,1,3,3,0111010000001010111100101,0111010000000011111100101,1008,902,0,<rshift>,1
3001,A,12,1,3,4,1101111001010011000100010,1101011001110011000100010,1008,901,0,<rshift>,1
3001,A,12,1,3,5,0110110111010101000000011,0110110110110101000000011,1008,1596,1,<lshift>,1
3001,A,12,1,3,6,0110010110000100110100111,0110010010000100111100111,1007,1812,0,<rshift>,1
3001,A,12,1,3,7,1101010110110000111101000,1101010110010001111101000,1007,942,0,<rshift>,1
3001,A,12,1,3,8,1101001100011010010101101,1101001100011011010101001,1007,908,1,<lshift>,1
3001,A,12,1,3,9,0100110010100111010001100,0000110010110111010001100,1007,1002,0,<rshift>,1
3001,A,12,1,3,10,0000010111101010010100011,0000010111101110010100010,1007,850,0,<rshift>,1
3001,A,12,1,3,11,0000101011001001001110110,0010101011001000001110110,1007,1362,1,<lshift>,1
3001,A,12,1,3,12,1000001111110101010001110,1000001101110101110001110,1006,963,1,<lshift>,1
3001,A,12,1,3,13,0110011011100101001100000,0110001011100101001100001,1006,787,0,<rshift>,1
3001,A,12,1,3,14,1011000101110011101001000,1011100101010011101001000,1008,738,0,<rshift>,1
3001,A,12,1,3,15,0010100011110010101111000,0010100111100010101111000,1008,778,0,<rshift>,1
3001,A,12,1,3,16,0010001110010000111101010,0010001110000000111101011,1007,891,1,<lshift>,1
3001,A,12,1,3,17,0000010110111000011111011,1000010110111000011111010,1006,730,0,<rshift>,1
3001,A,12,1,3,18,1110010111100110101000100,1110000111100110101000101,1007,1092,1,<lshift>,1
3001,A,12,1,3,19,1010010000100111100101110,1000010000110111100101110,1008,707,1,<lshift>,1
3001,A,12,1,3,20,0001101101011000010011101,0000101101011000010011111,1008,713,1,<lshift>,1
3001,A,12,1,3,21,1100110101100011010100100,1100010101100011010100110,1008,775,1,<lshift>,1
3001,A,12,1,3,22,1100110110100110000111000,1100010110100111000111000,1008,891,0,<rshift>,1
3001,A,12,1,3,23,0110100000000111011100110,0110100100000111011100010,1008,1717,1,<lshift>,1
3001,A,12,1,3,24,0001011111010001001100110,1001001111010001001100110,1007,808,1,<lshift>,1
3001,A,12,1,3,25,1001000110101110101000100,1101000110101110001000100,1007,1115,1,<lshift>,1
3001,A,12,1,3,26,0011010100111011100001110,0011010100111011100101100,1007,1430,1,<lshift>,1
3001,A,12,1,3,27,0001011100111100000011010,1001011100111100000010010,1007,828,1,<lshift>,1
3001,A,12,1,3,28,1000111110111000000100010,1100111110011000000100010,1007,836,0,<lshift>,0
3001,A,12,1,3,29,1010001001111110000010101,1010101001011110000010101,1008,1092,1,<rshift>,0
3001,A,12,1,3,30,1001001010100110111110001,0001011010100110111110001,1007,879,1,<lshift>,1
3001,A,12,1,3,31,0001001101101101010101001,0001001101101101010011001,1008,2252,0,<lshift>,0
3001,A,12,1,3,32,0111001110010111000100001,0110011110010111000100001,1008,1381,0,<lshift>,0
3001,A,12,1,3,33,1011101110000110100101100,1010101110010110100101100,1007,797,0,<rshift>,1
3001,A,12,1,3,34,0000111011101010010010101,0100111011100010010010101,1008,1598,0,<rshift>,1
3001,A,12,1,3,35,0101011001111000100010010,0111011000111000100010010,1007,803,0,<rshift>,1
3001,A,2,2,7,1,0101000100001101010011011,0001001100001101010011011,1007,1709,0,<lshift>,0
3001,A,2,2,7,2,1100110111001100010110010,1101110110001100010110010,1007,2974,0,<rshift>,1
3001,A,2,2,7,3,1100101001000101111011000,1100111001000101011011000,1008,1451,0,<rshift>,1
3001,A,2,2,7,4,1111000110100100100101010,1111000100100110100101010,1008,1929,1,<lshift>,1
3001,A,2,2,7,5,1001100001110010011010111,1001101001110010001010111,1006,2029,0,<lshift>,0
3001,A,2,2,7,6,0001011111110010001001000,1001011111110010001000000,1008,1609,0,<rshift>,1
3001,A,2,2,7,7,0010111011110001010100011,0010110011110001010100111,1007,1324,1,<lshift>,1
3001,A,2,2,7,8,0000101011001010011011001,0010001011001010011011001,1007,2340,0,<lshift>,0
3001,A,2,2,7,9,0110001100100000011011011,0110001100000010011011011,1008,1572,0,<rshift>,1
3001,A,2,2,7,10,0000011111101001010101001,0000010111101001010101101,1008,1002,0,<rshift>,1
3001,A,2,2,7,11,0001001111001100011101110,0001001101001100011101111,1007,1147,0,<rshift>,1
3001,A,2,2,7,12,0000111110000110010100111,0100111100000110010100111,1008,951,1,<lshift>,1
3001,A,2,2,7,13,1001001011101000010101001,1001001011101010010001001,1008,2207,0,<lshift>,0
3001,A,2,2,7,14,1001101000110101011001100,1001101001110001011001100,1008,865,1,<lshift>,1
3001,A,2,2,7,15,0110001111100110110110000,0110001111110010110110000,1007,781,1,<lshift>,1
3001,A,2,2,7,16,1001010111001110100001011,1001000111101110100001011,1007,2350,0,<lshift>,0
3001,A,2,2,7,17,1001000001110011100110001,1001000001110010101110001,1007,1359,1,<lshift>,1
3001,A,2,2,7,18,1000111101010111010000010,1000111001010111011000010,1008,2891,1,<rshift>,0
3001,A,2,2,7,19,1001001001101111011011000,1001001001100111011011010,1007,1881,1,<lshift>,1
3001,A,2,2,7,20,0010111011001110000010001,0010101011001110000110001,1007,1203,0,<rshift>,1
3001,A,2,2,7,21,1000111010000110110001111,0010111010000110110001111,1007,1116,0,<rshift>,1
3001,A,2,2,7,22,1001101010000001111010011,1001101011000001011010011,1008,1314,1,<lshift>,1
3001,A,2,2,7,23,1000100010110101001011101,1000100010110101001010111,1008,2065,0,<rshift>,1
3001,A,2,2,7,24,1011001000011100110001111,1011001000011101010001111,1007,793,1,<lshift>,1
3001,A,2,2,7,25,0001101110110010001010010,0011101110100010001010010,1007,918,0,<rshift>,1
3001,A,2,2,7,26,0010011100001101101100111,0010001100001111101100111,1007,1317,1,<rshift>,0
3001,A,2,2,7,27,0010000001001011011111001,0010010001001001011111001,1007,1172,0,<rshift>,1
3001,A,2,2,7,28,0111000010001001101101101,0101000010001011101101101,1008,1668,1,<lshift>,1
3001,A,2,2,7,29,0100011011100010001110110,0110011011100010001100110,1008,1463,0,<rshift>,1
3001,A,2,2,7,30,1011110100110010001000100,1011110100110010001010000,1007,873,0,<rshift>,1
3001,A,2,2,7,31,1001100100100100100101110,1001100110100100100001110,1007,1147,1,<lshift>,1
3001,A,2,2,7,32,1001010011010111001100001,1000010011010111101100001,1008,1797,0,<rshift>,1
3001,A,2,2,7,33,0010010010111100011101011,1010010010011100011101011,1008,1834,1,<rshift>,0
3001,A,2,2,7,34,0000111101011010101001000,0001111101011000101001000,1007,1367,1,<rshift>,0
3001,A,2,2,7,35,0110010110110000010011111,0110010101110000010011111,1008,3083,0,<rshift>,1
3001,A,3,3,2,1,0101100000001111101000011,0101100001001110101000011,1007,1639,0,<rshift>,1
3001,A,3,3,2,2,0110111110110000000101100,0110111110110100000001100,1008,1424,1,<lshift>,1
3001,A,3,3,2,3,0001101010101000011010111,0101101010100000011010111,1008,3356,0,<lshift>,0
3001,A,3,3,2,4,0110000110101011000011101,0110000010101011000111101,1007,1076,0,<rshift>,1
3001,A,3,3,2,5,1110101100010110011010100,1110100110010110011010100,1007,1754,1,<lshift>,1
3001,A,3,3,2,6,0111110001010101010101010,0111110000110101010101010,1008,1158,1,<lshift>,1
3001,A,3,3,2,7,0011011010111101001001100,0001011010111101101001100,1007,981,0,<rshift>,1
3001,A,3,3,2,8,0000001010101011011000111,0000001000101111011000111,1008,873,1,<lshift>,1
3001,A,3,3,2,9,0001101110000101101101010,0001111110000101001101010,1008,902,1,<lshift>,1
3001,A,3,3,2,10,0001001001110101100110111,0001101001100101100110111,1007,2038,0,<rshift>,1
3001,A,3,3,2,11,1110100010001011010110000,1110100010001011000110001,1006,711,1,<lshift>,1
3001,A,3,3,2,12,1010011100000010110111100,1110011100000010110111000,1007,846,0,<rshift>,1
3001,A,3,3,2,13,1010100101110010101101001,1010100001110010101101101,1006,1295,0,<rshift>,1
3001,A,3,3,2,14,0010001101111001101100001,0010001101111001101000011,1007,1531,1,<lshift>,1
3001,A,3,3,2,15,0010011101010001111010100,1010011101010001111000100,1008,1174,1,<lshift>,1
3001,A,3,3,2,16,1000001110100111001101011,1000001110100111011001011,1007,1602,0,<rshift>,1
3001,A,3,3,2,17,0001100010101000011110011,0001110010100000011110011,1006,1086,1,<lshift>,1
3001,A,3,3,2,18,0110101000001001100010111,1110101000000001100010111,1008,1656,0,<rshift>,1
3001,A,3,3,2,19,0001110101011011100011100,0001110101011010101011100,1007,1112,0,<rshift>,1
3001,A,3,3,2,20,1101010001000100101110011,0101010001100100101110011,1007,1041,1,<lshift>,1
3001,A,3,3,2,21,1111001000110010100100110,1101101000110010100100110,1008,1342,0,<rshift>,1
3001,A,3,3,2,22,1010000010011110100110011,1000100010011110100110011,1007,4974,0,<lshift>,0
3001,A,3,3,2,23,1011001000111000110000110,1011001000111000010100110,1007,1180,0,<rshift>,1
3001,A,3,3,2,24,0101001101100111100000010,0101001100100111100000110,1007,1112,1,<lshift>,1
3001,A,3,3,2,25,1011101110010001100001010,1011100110011001100001010,1008,1035,1,<lshift>,1
3001,A,3,3,2,26,0010101010010001111001110,0010101000010001111001111,1008,1967,0,<rshift>,1
3001,A,3,3,2,27,1000111100110100000001011,1000101100110100000101011,1007,1438,0,<rshift>,1
3001,A,3,3,2,28,1110111100000010001001100,1110111000000010001011100,1007,2254,0,<rshift>,1
3001,A,3,3,2,29,0010111000000111001101011,0010111001000111000101011,1008,1648,0,<rshift>,1
3001,A,3,3,2,30,0010010000100111111000111,0010000001100111111000111,1008,3241,1,<rshift>,0
3001,A,3,3,2,31,0011101110010001000101001,0011001110010001000101101,1008,2418,1,<rshift>,0
3001,A,3,3,2,32,0101011000011100010100011,0101011010001100010100011,1007,975,0,<rshift>,1
3001,A,3,3,2,33,1011010010011000101110001,1011011010011000101010001,1007,994,0,<rshift>,1
3001,A,3,3,2,34,1101001100101100110100001,1101001000101100110100101,1008,1014,1,<lshift>,1
3001,A,3,3,2,35,1101000001111001010011010,1101000001111100010011010,1008,842,0,<rshift>,1
3001,A,6,2,4,1,1001010110110101101010010,1001010110110100101011010,1008,1284,0,<rshift>,1
3001,A,6,2,4,2,0110010001001101000011111,0110010001101101000011110,1005,988,1,<lshift>,1
3001,A,6,2,4,3,1101100011010000010011101,1101100010010000110011101,1008,910,0,<rshift>,1
3001,A,6,2,4,4,1110110001000101000011110,1110110001010101000010110,1008,1028,1,<lshift>,1
3001,A,6,2,4,5,0011010100001000101111010,0011010101001000100111010,1007,1371,0,<rshift>,1
3001,A,6,2,4,6,1101010111000000010011111,1101010111000000110011101,1007,1281,1,<lshift>,1
3001,A,6,2,4,7,0011101001011001001111100,1011101001011001001110100,1007,1213,1,<lshift>,1
3001,A,6,2,4,8,1100001111010010011001001,0110001111010010011001001,1008,2459,1,<lshift>,1
3001,A,6,2,4,9,0000001101100111111110000,0000001101100111101111000,1007,927,0,<rshift>,1
3001,A,6,2,4,10,1001001110001010011110011,1001101010001010011110011,1008,961,0,<rshift>,1
3001,A,6,2,4,11,0001111011010000111101001,1001111011010000111100001,1007,1451,1,<lshift>,1
3001,A,6,2,4,12,0111000100010010101111010,0111000100010110101110010,1008,976,0,<rshift>,1
3001,A,6,2,4,13,0111110100000011101010101,0111110100100011101010100,1007,1574,0,<rshift>,1
3001,A,6,2,4,14,1101010000000111001010110,0101010000000111101010110,1007,1084,0,<rshift>,1
3001,A,6,2,4,15,0011110110000000100101101,0011010110000010100101101,1007,2162,0,<lshift>,0
3001,A,6,2,4,16,1010010101000001110010011,0010010101010001110010011,1007,866,0,<rshift>,1
3001,A,6,2,4,17,0010101101110111000000010,1010101101100111000000010,1007,840,1,<lshift>,1
3001,A,6,2,4,18,0111110001011000111010100,0111110001011001110010100,1007,851,1,<lshift>,1
3001,A,6,2,4,19,1000100001011110001101111,0010100001011110001101111,1007,3060,0,<rshift>,1
3001,A,6,2,4,20,0100100011100001110010101,0100100011110001110010100,1007,1096,1,<lshift>,1
3001,A,6,2,4,21,1000100100111011010000111,1000100100111101010000111,1008,1057,0,<rshift>,1
3001,A,6,2,4,22,0000001111000010110101101,0000001111010000110101101,1007,976,1,<lshift>,1
3001,A,6,2,4,23,1011100101110000100101000,1011000101110000110101000,1006,1488,1,<lshift>,1
3001,A,6,2,4,24,1000100101011101101001101,1000100101001101101001111,1007,1793,0,<rshift>,1
3001,A,6,2,4,25,0111110101010001101100001,0101110101110001101100001,1007,1108,0,<rshift>,1
3001,A,6,2,4,26,1000111101010011111010000,1000111111000011111010000,1006,982,1,<lshift>,1
3001,A,6,2,4,27,1001000010101111001001100,1001000010101111001000110,1007,938,1,<lshift>,1
3001,A,6,2,4,28,1111101001000001111101000,1111101000000001111101010,1008,1244,0,<rshift>,1
3001,A,6,2,4,29,1110100100001011010011000,1110100100001011010010100,1007,1502,0,<rshift>,1
3001,A,6,2,4,30,0001011010111011010000100,0001011010101011010100100,1008,1832,1,<lshift>,1
3001,A,6,2,4,31,1111011100100000011001101,1111011100100000101001101,1008,1417,1,<lshift>,1
3001,A,6,2,4,32,1010001000110111001110001,1000101000110111001110001,1007,2287,0,<rshift>,1
3001,A,6,2,4,33,0000110100111001001010110,0000010101111001001010110,1007,1439,0,<rshift>,1
3001,A,6,2,4,34,0110101000010000111101101,0111101000010000111100101,1007,888,0,<rshift>,1
3001,A,6,2,4,35,1000011010001000111001101,1000011110001000101001101,1007,1750,1,<lshift>,1
3001,A,7,3,3,1,0011100101001110011100100,0011100101001110001110100,1007,805,0,<rshift>,1
3001,A,7,3,3,2,1000000111101101101000001,1000000111101100101000101,1007,820,1,<lshift>,1
3001,A,7,3,3,3,0010110001100011100001011,0010110011000011100001011,1007,1061,0,<rshift>,1
3001,A,7,3,3,4,0010001110000101111111100,0010001110000111111011100,1007,990,0,<rshift>,1
3001,A,7,3,3,5,1000011001011100011001111,1000011001011000011011111,1007,813,1,<lshift>,1
3001,A,7,3,3,6,1011100110000110111000101,1011100110000010111010101,1007,1041,0,<rshift>,1
3001,A,7,3,3,7,1001011000101000011000111,1101011000101000001000111,1007,893,0,<rshift>,1
3001,A,7,3,3,8,0110100100000110101100101,0110100100000110100101101,1007,2014,1,<lshift>,1
3001,A,7,3,3,9,1100001010011011000111011,1100001010011010000111111,1007,1244,0,<rshift>,1
3001,A,7,3,3,10,0110101101101100100100100,0110101001101101100100100,1008,904,0,<rshift>,1
3001,A,7,3,3,11,1100101001011001110010010,1100001001011001110011010,1008,2336,0,<rshift>,1
3001,A,7,3,3,12,0001000001100100111011111,1001000001100100101011111,1008,961,1,<lshift>,1
3001,A,7,3,3,13,1011111100000011100010100,1111111100000011000010100,1008,1303,1,<lshift>,1
3001,A,7,3,3,14,1010100010010100011111101,1010100110010000011111101,1008,1750,0,<rshift>,1
3001,A,7,3,3,15,1101000110110001011110010,1101000110110001011110100,1007,3299,0,<rshift>,1
3001,A,7,3,3,16,1100101001000100011001101,1100100001000100011101101,1007,1048,1,<lshift>,1
3001,A,7,3,3,17,0111110101101001100100000,0101111101101001100100000,1008,1321,1,<lshift>,1
3001,A,7,3,3,18,0100101110101010001110100,0100101010101010001111100,1008,1875,0,<rshift>,1
3001,A,7,3,3,19,1010011101111011001000001,1010011101111111000000001,1008,1065,1,<lshift>,1
3001,A,7,3,3,20,1001011111001001101010100,1001011111001101100010100,1006,980,0,<rshift>,1
3001,A,7,3,3,21,0100101100011010111100100,0100001100011010111110100,1008,1797,1,<lshift>,1
3001,A,7,3,3,22,0001101000011101010101100,0001101001001101010101100,1007,1102,1,<lshift>,1
3001,A,7,3,3,23,0000101001111100100100011,0000101001111100100110001,1007,854,1,<lshift>,1
3001,A,7,3,3,24,0110000000101111110110000,0110000000101111110010010,1006,1000,0,<rshift>,1
3001,A,7,3,3,25,1001000011111111000100001,1001000011111101010100001,1008,941,1,<lshift>,1
3001,A,7,3,3,26,1101110000010101010100100,1101110000010111010100000,1007,1365,1,<lshift>,1
3001,A,7,3,3,27,0001011000011011100111000,1001011000001011100111000,1007,1047,1,<lshift>,1
3001,A,7,3,3,28,0111000011110000011010111,1111000011010000011010111,1007,2048,1,<lshift>,1
3001,A,7,3,3,29,0101000011100101010011101,0001100011100101010011101,1008,1141,0,<rshift>,1
3001,A,7,3,3,30,0000111110101101010110000,0001011110101101010110000,1007,1183,1,<lshift>,1
3001,A,7,3,3,31,1011100010001100100010101,1011010010001100100010101,1007,5379,0,<lshift>,0
3001,A,7,3,3,32,1001001001110110100110001,1001001001110100101110001,1008,1746,1,<lshift>,1
3001,A,7,3,3,33,0101011100100000111010001,0101001101100000111010001,1007,1592,0,<rshift>,1
3001,A,7,3,3,34,0010011011100010001101100,0010011111100010001101000,1007,1002,1,<lshift>,1
3001,A,7,3,3,35,0001100111100000110100101,0001100011100000111100101,1008,1193,1,<lshift>,1
3001,A,8,4,6,1,1001101111001011000000001,1001101111001011000000100,1008,1178,1,<rshift>,0
3001,A,8,4,6,2,1100000011100101101001100,1100000011100101001101100,1008,1156,0,<rshift>,1
3001,A,8,4,6,3,1000011011001010110001110,1000001011001010110001111,1008,1006,0,<rshift>,1
3001,A,8,4,6,4,1101010011000001110101100,1101010010001001110101100,1008,1067,0,<rshift>,1
3001,A,8,4,6,5,0100100111001111001101010,0100100111001111101100010,1007,777,1,<lshift>,1
3001,A,8,4,6,6,0100101110011001101011010,0101101010011001101011010,1008,946,0,<rshift>,1
3001,A,8,4,6,7,1011011001101001100100001,0011011001101001100100011,1007,2193,1,<lshift>,1
3001,A,8,4,6,8,1100110100000010011101110,1100010100000010011101111,1008,1184,1,<lshift>,1
3001,A,8,4,6,9,0101101010101101001001011,1101100010101101001001011,1007,986,0,<rshift>,1
3001,A,8,4,6,10,0011001110011101001011000,0001001110111101001011000,1008,1286,0,<rshift>,1
3001,A,8,4,6,11,1000010011010001110101101,1000010111010001110001101,1007,4148,0,<rshift>,1
3001,A,8,4,6,12,1111101111001000010001000,1110101111001000010001100,1008,1744,1,<lshift>,1
3001,A,8,4,6,13,0010110110010010110101110,1010110110000010110101110,1007,2308,0,<rshift>,1
3001,A,8,4,6,14,1001100001111101100000100,1000100001111101100001100,1007,1459,1,<lshift>,1
3001,A,8,4,6,15,0101100001110010001101101,0101100011110010001001101,1008,979,0,<rshift>,1
3001,A,8,4,6,16,0100111100011000111101001,1100011100011000111101001,1008,828,1,<lshift>,1
3001,A,8,4,6,17,0001000100110100110111001,0001000100110100111011001,1007,1454,1,<lshift>,1
3001,A,8,4,6,18,0000101010101111110100101,0000101010101101110100111,1007,3172,0,<lshift>,0
3001,A,8,4,6,19,0010101100001001011101101,0010101110000001011101101,1007,1148,0,<rshift>,1
3001,A,8,4,6,20,1001110011100100100010110,1011110011100100100010100,1008,944,0,<rshift>,1
3001,A,8,4,6,21,0000101101100010010110110,0000101001100010010110111,1006,740,1,<lshift>,1
3001,A,8,4,6,22,1101100010100111001010001,1101101010000111001010001,1008,2137,0,<rshift>,1
3001,A,8,4,6,23,1101001001010110001011100,1101011001010110000011100,1008,924,0,<rshift>,1
3001,A,8,4,6,24,0101110110000101001100011,0101110111000101000100011,1008,2117,1,<lshift>,1
3001,A,8,4,6,25,0011010101110001100001001,0011010110110001100001001,1007,1088,1,<lshift>,1
3001,A,8,4,6,26,0001010001001111101000111,0001010001001110101100111,1008,907,1,<lshift>,1
3001,A,8,4,6,27,1101001000011100100010111,1101001000011000101010111,1009,967,1,<rshift>,0
3001,A,8,4,6,28,1010101011110000001010111,1010111010110000001010111,1006,1049,1,<lshift>,1
3001,A,8,4,6,29,0011010100011100001011001,0011010100011110000011001,1006,1713,0,<lshift>,0
3001,A,8,4,6,30,0011100100011010111101100,0011100100011010111100101,1006,2408,1,<rshift>,0
3001,A,8,4,6,31,1010111001011001100000001,1010111000011101100000001,1007,1297,0,<lshift>,0
3001,A,8,4,6,32,1100000111010110100101110,1110000111010110100100110,1008,979,1,<lshift>,1
3001,A,8,4,6,33,0100011001101110101100001,1100011001001110101100001,1008,953,0,<rshift>,1
3001,A,8,4,6,34,1100011011001001010110000,1110011011000001010110000,1007,982,0,<rshift>,1
3001,A,8,4,6,35,1011100011001000001010011,1010100011001000101010011,1006,1076,0,<rshift>,1
3001,B,2,3,6,1,1111010100001000010001011,1111010100000000010101011,1007,485,0,<rshift>,1
3001,B,2,3,6,2,1010010101100100001101100,1010010111100000001101100,1008,1050,0,<lshift>,0
3001,B,2,3,6,3,0101000011100101011100111,0101000011100001011110111,1007,605,1,<lshift>,1
3001,B,2,3,6,4,1100011001010101110000111,1100011001000101110100111,1006,1218,0,<lshift>,0
3001,B,2,3,6,5,1011000011101101001011010,1011000011101101101011000,1006,679,0,<rshift>,1
3001,B,2,3,6,6,1111001101101010010110000,1111001101100011010110000,1006,692,0,<rshift>,1
3001,B,2,3,6,7,0111001011111101000000000,1111001011101101000000000,1005,545,1,<lshift>,1
3001,B,2,3,6,8,0001111010010010001110110,0001110110010010001110110,1007,898,0,<rshift>,1
3001,B,2,3,6,9,0010100001111011010001100,0010100000111011010101100,1005,1480,0,<lshift>,0
3001,B,2,3,6,10,1011011001101111100000010,1011011101101110100000010,1006,1304,0,<rshift>,1
3001,B,2,3,6,11,1001010011010110011100000,1000010011010111011100000,1006,725,0,<rshift>,1
3001,B,2,3,6,12,0110110011001110010101000,0110110011001111010001000,1006,664,1,<lshift>,1
3001,B,2,3,6,13,1110011110100100010101010,1110011110100000011101010,1006,1053,1,<lshift>,1
3001,B,2,3,6,14,0010001101011110110000001,0010101101010110110000001,1005,643,1,<lshift>,1
3001,B,2,3,6,15,1000111011000111000010011,1000011011000111000110011,1007,824,0,<rshift>,1
3001,B,2,3,6,16,1001101101111001001000000,1011101100111001001000000,1005,934,0,<rshift>,1
3001,B,2,3,6,17,1001010101010010100010011,0001110101010010100010011,1005,1184,1,<lshift>,1
3001,B,2,3,6,18,0101110100010110000110011,0101110101010110000110001,1007,625,0,<lshift>,0
3001,B,2,3,6,19,0111010101001101100000100,0111010101000101101000100,1005,1249,0,<lshift>,0
3001,B,2,3,6,20,1000000001111101101011010,1000000001111101100011011,1005,688,0,<rshift>,1
3001,B,2,3,6,21,1011001101100110000100110,1011001111100110000000110,1006,655,1,<lshift>,1
3001,B,2,3,6,22,0110101000010111100110101,0110101000010111100100111,1007,994,1,<rshift>,0
3001,B,2,3,6,23,1001000011010010100011101,1001000011010010101010101,1006,877,0,<rshift>,1
3001,B,2,3,6,24,1110111000010100001101110,1111101000010100001101110,1006,928,1,<lshift>,1
3001,B,2,3,6,25,0111110111110010010010000,0111110111010011010010000,1006,1044,0,<rshift>,1
3001,B,2,3,6,26,1100010010100011000011011,1000010010100011001011011,1005,788,1,<lshift>,1
3001,B,2,3,6,27,1011011010100010010101001,0111011010100010010101001,1006,658,1,<lshift>,1
3001,B,2,3,6,28,0111100100001100001010101,0101100100001100001010111,1005,604,1,<lshift>,1
3001,B,2,3,6,29,0000111110111000100100001,0000111110111000100100010,1006,466,1,<rshift>,0
3001,B,2,3,6,30,1101101100010010110100011,1101101110010010110100001,1006,884,0,<rshift>,1
3001,B,2,3,6,31,1011100111010010010001100,1011000111010011010001100,1006,1062,0,<rshift>,1
3001,B,2,3,6,32,1000111100100100110101011,1000111100100101010101011,1006,1497,1,<lshift>,1
3001,B,2,3,6,33,1100100001001010010111111,1100110001001010010111011,1006,1384,1,<lshift>,1
3001,B,2,3,6,34,1110001010001101011011001,1110001010001100011111001,1006,588,1,<lshift>,1
3001,B,2,3,6,35,0101000111111000010001011,0101000110111010010001011,1007,1312,1,<lshift>,1
3001,B,3,1,8,1,0011100001110010100101011,0011100001111010100100011,1005,666,1,<lshift>,1
3001,B,3,1,8,2,1101100010100001100011001,1101100010100001100001101,1006,1065,0,<rshift>,1
3001,B,3,1,8,3,1001010010010110010011110,0001010110010110010011110,1006,619,0,<rshift>,1
3001,B,3,1,8,4,1010110101010001000110010,1010110001010001000110110,1005,782,0,<rshift>,1
3001,B,3,1,8,5,0011100001110100111100011,0011101001110100111100010,1006,1238,0,<rshift>,1
3001,B,3,1,8,6,0011100001101001011111100,0011110001101001011011100,1007,1289,0,<rshift>,1
3001,B,3,1,8,7,1000000111011001101010101,1000000111011000101010111,1006,608,1,<lshift>,1
3001,B,3,1,8,8,1110001001101101101000101,1110001001111101100000101,1006,858,0,<rshift>,1
3001,B,3,1,8,9,0111100011101101010001001,0111100010101101010011001,1006,1422,0,<lshift>,0
3001,B,3,1,8,10,0100000010100110101110101,1100000010100110001110101,1007,681,1,<lshift>,1
3001,B,3,1,8,11,1010000011101011010100010,1010000011001011011100010,1007,986,1,<lshift>,1
3001,B,3,1,8,12,1111100100101010001110010,1111000101101010001110010,1007,880,1,<lshift>,1
3001,B,3,1,8,13,0101001101100111110010100,0100001101100111110010110,1006,831,0,<lshift>,0
3001,B,3,1,8,14,0011000111101000011100011,1011000111101000011100010,1007,606,1,<lshift>,1
3001,B,3,1,8,15,0101111100100000001001111,0101110100101000001001111,1007,825,1,<lshift>,1
3001,B,3,1,8,16,1010001110110001100100110,1010001110110011000100110,1006,861,0,<rshift>,1
3001,B,3,1,8,17,1100010011010100001011010,1100010011010100011001010,1005,1092,0,<lshift>,0
3001,B,3,1,8,18,1111001000111001010011100,1111000000111001110011100,1006,868,0,<rshift>,1
3001,B,3,1,8,19,1101001011000111000101011,1101101010000111000101011,1006,1087,1,<lshift>,1
3001,B,3,1,8,20,0101011101011011001010000,0101110101011011001010000,1005,916,1,<rshift>,0
3001,B,3,1,8,21,1100011001001001111101100,1100011001001001111011100,1006,629,1,<lshift>,1
3001,B,3,1,8,22,1101101110100001110010100,1101101110100001110001100,1006,551,1,<lshift>,1
3001,B,3,1,8,23,0010110101010001110101011,0010110101010101010101011,1006,1117,1,<lshift>,1
3001,B,3,1,8,24,0100000101100100001111011,0100000111100100001111001,1006,1217,1,<lshift>,1
3001,B,3,1,8,25,1001010010110010100001101,1001010010111010100001001,1006,871,0,<lshift>,0
3001,B,3,1,8,26,0111111011000101000110010,1111111011000100000110010,1008,747,1,<lshift>,1
3001,B,3,1,8,27,0001000010111000110111010,0001000110011000110111010,1007,956,0,<rshift>,1
3001,B,3,1,8,28,0001110111100010001111100,0000110111110010001111100,1007,857,0,<rshift>,1
3001,B,3,1,8,29,1001000111110011001001100,1101000110110011001001100,1005,1096,0,<lshift>,0
3001,B,3,1,8,30,0110111100101000010011011,0110111100101001000011011,1006,858,1,<lshift>,1
3001,B,3,1,8,31,1001100001100000011101011,1001100001101000011100011,1006,774,1,<rshift>,0
3001,B,3,1,8,32,1110010010100010101100011,1110010010100010101101001,1006,813,1,<lshift>,1
3001,B,3,1,8,33,0000110101101010111010001,0000110101101010111000011,1007,1262,0,<lshift>,0
3001,B,3,1,8,34,0101011000100110100011110,0101011000000111100011110,1006,1103,1,<lshift>,1
3001,B,3,1,8,35,1010101010000110001101001,1000101010000110001101011,1006,580,0,<rshift>,1
3001,B,4,2,8,1,1111000000111110000101110,1110000000111110100101110,1070,621,0,<rshift>,1
3001,B,4,2,8,2,0100011001101011000110010,0100001001101011100110010,1004,726,1,<lshift>,1
3001,B,4,2,8,3,0110100001110110101001110,0110100000110111101001110,1005,715,1,<lshift>,1
3001,B,4,2,8,4,0101010011100000000011111,0110010011100000000011111,1005,1123,0,<lshift>,0
3001,B,4,2,8,5,0001100111101001100111000,1001100101101001100111000,1005,596,1,<lshift>,1
3001,B,4,2,8,6,0101110011000001001111001,0101111011000001001101001,1005,723,0,<rshift>,1
3001,B,4,2,8,7,0101101011000101011100100,0101101011001001011100100,1006,1140,0,<rshift>,1
3001,B,4,2,8,8,0001011011110100001011110,0001010011110100001011111,1006,721,1,<lshift>,1
3001,B,4,2,8,9,1001000100101011010111101,1001000100101010110111101,1005,850,0,<rshift>,1
3001,B,4,2,8,10,1110101101011010000101010,1110100101011010100101010,1005,614,1,<lshift>,1
3001,B,4,2,8,11,0100010111001011001110101,0000010111001011011110101,1005,1391,0,<rshift>,1
3001,B,4,2,8,12,0100111001111000100100101,0100011101111000100100101,1006,1045,0,<rshift>,1
3001,B,4,2,8,13,0000100011101110011011000,0000100011101110011001001,1006,771,1,<lshift>,1
3001,B,4,2,8,14,1011000101010001011101011,1011000101010001010111011,1006,713,1,<lshift>,1
3001,B,4,2,8,15,0000100111011111110000101,0000000111011111110000111,1006,883,0,<rshift>,1
3001,B,4,2,8,16,0101101101011100011000110,0101101101011100011100010,1005,686,1,<lshift>,1
3001,B,4,2,8,17,0011101101100010000001101,0011101101000010000001111,1007,791,1,<lshift>,1
3001,B,4,2,8,18,1101010010101100010110011,1101010110101100010100011,1006,1734,0,<rshift>,1
3001,B,4,2,8,19,0010011001111111101000001,0000011101111111101000001,1006,1338,1,<lshift>,1
3001,B,4,2,8,20,0011000001001010110111100,0011000001001011100111100,1005,652,0,<rshift>,1
3001,B,4,2,8,21,1110110100010011000100101,1110110100010001001100101,1007,972,0,<rshift>,1
3001,B,4,2,8,22,1110101110010110011000100,1110101110110010011000100,1006,807,0,<rshift>,1
3001,B,4,2,8,23,1100101110000001100000111,1110101110000001000000111,1006,912,0,<rshift>,1
3001,B,4,2,8,24,1010100101101010010101010,1010100101101000011101010,1006,1290,1,<lshift>,1
3001,B,4,2,8,25,0000010111111001100011010,0000010111011011100011010,1006,762,1,<lshift>,1
3001,B,4,2,8,26,0010001110100111101101010,0010001110100101101101011,1007,1442,0,<rshift>,1
3001,B,4,2,8,27,0001101001101001100001011,0100101001101001100001011,1004,1103,0,<rshift>,1
3001,B,4,2,8,28,0110000100101010001111100,0110000100101100001111100,1007,803,0,<lshift>,0
3001,B,4,2,8,29,1001110101110010000010111,1001110101110011000010110,1006,946,0,<rshift>,1
3001,B,4,2,8,30,0010110100101001110011011,0010110010101001110011011,1007,1034,1,<lshift>,1
3001,B,4,2,8,31,0111011101100110011100000,0101111101100110011100000,1007,1460,0,<rshift>,1
3001,B,4,2,8,32,1100110110011101000101000,1100100110011101000101001,1007,1882,0,<rshift>,1
3001,B,4,2,8,33,1100001011001101111100010,1100001110001101111100010,1005,1137,1,<lshift>,1
3001,B,4,2,8,34,0011000110001001010110111,0011000110101000010110111,1006,569,1,<lshift>,1
3001,B,4,2,8,35,1110101000101010101010000,1110101000001010101110000,1005,1196,1,<lshift>,1
3001,B,5,4,5,1,1001111100110101010010100,1001111000110101010110100,1007,760,0,<rshift>,1
3001,B,5,4,5,2,0100101001110110000111000,0101101001110110000101000,1005,1008,0,<rshift>,1
3001,B,5,4,5,3,1100110010100110000111101,1100011010100110000111101,1007,1758,1,<lshift>,1
3001,B,5,4,5,4,1100001010100100010110101,1100101010100000010110101,1007,635,0,<rshift>,1
3001,B,5,4,5,5,1110101101010101000010010,1110100101011101000010010,1006,922,1,<lshift>,1
3001,B,5,4,5,6,0011001101011001110100110,0011001101011100110100110,1007,699,1,<lshift>,1
3001,B,5,4,5,7,1111000011011010000010011,1101100011011010000010011,1006,1260,0,<rshift>,1
3001,B,5,4,5,8,0010001011111001111010001,0010101011111001011010001,1006,711,1,<lshift>,1
3001,B,5,4,5,9,0011001001011101011001101,0011001001011001011001111,1007,957,0,<rshift>,1
3001,B,5,4,5,10,1110011010001001110001100,1110011010001000111001100,1007,1016,1,<lshift>,1
3001,B,5,4,5,11,1010101110000010010110011,1100101110000010010110011,1006,751,0,<rshift>,1
3001,B,5,4,5,12,0000010100011011001111111,0000011100011011001111101,1006,783,0,<rshift>,1
3001,B,5,4,5,13,1011000101000010010110011,1011000101000010010011011,1005,1060,0,<rshift>,1
3001,B,5,4,5,14,0001111101010111111000000,0001111100011111111000000,1007,1330,1,<lshift>,1
3001,B,5,4,5,15,1001001010100110011101010,1001001010100010111101010,1006,702,0,<rshift>,1
3001,B,5,4,5,16,0010111001000101001100101,0010110001010101001100101,1006,794,0,<rshift>,1
3001,B,5,4,5,17,1011111101010100100000110,1011111100010101100000110,1007,752,0,<rshift>,1
3001,B,5,4,5,18,1001110101100010000011110,1001110101100000000111110,1006,1955,1,<lshift>,1
3001,B,5,4,5,19,1011010011111100000010001,1011010011111000000011001,1004,1286,0,<lshift>,0
3001,B,5,4,5,20,0010000100111110110110010,0010001100111010110110010,1006,869,0,<rshift>,1
3001,B,5,4,5,21,1001000011010111010110010,1001001010010111010110010,1006,846,0,<rshift>,1
3001,B,5,4,5,22,0010111001100100100011100,0110111001100000100011100,1005,1497,1,<lshift>,1
3001,B,5,4,5,23,0110101010000001011111000,0110101010000000011111010,1006,670,0,<rshift>,1
3001,B,5,4,5,24,0101101000001110011001111,0101101000001110001101111,1006,1083,1,<lshift>,1
3001,B,5,4,5,25,0100011001000010110110111,0100011000000110110110111,1007,1216,1,<rshift>,0
3001,B,5,4,5,26,1011110010001110001001011,1011110010001100001011011,1007,859,1,<lshift>,1
3001,B,5,4,5,27,1100001000100100011111001,1100001000100100111111000,1006,661,0,<lshift>,0
3001,B,5,4,5,28,0010000001100111001110111,0010010001100011001110111,1006,700,0,<lshift>,0
3001,B,5,4,5,29,1001100100111101100000001,1001100100110101100000011,1005,776,0,<rshift>,1
3001,B,5,4,5,30,0100111101000001001001101,0100011101010001001001101,1007,692,0,<rshift>,1
3001,B,5,4,5,31,1110000010001000010011111,1110100010001000010011101,1006,1060,0,<rshift>,1
3001,B,5,4,5,32,1010111100000100101010100,1010101100000100101010101,1006,1013,1,<lshift>,1
3001,B,5,4,5,33,0111100110100010010100011,0111100110100010011100010,1006,1290,0,<lshift>,0
3001,B,5,4,5,34,0110011100001100000110110,1110011100001100000110010,1005,1254,0,<rshift>,1
3001,B,5,4,5,35,1010111101100010011100000,1010110101100110011100000,1006,1201,1,<lshift>,1
3001,B,6,3,1,1,1111010001001010111000001,1111010011001000111000001,1006,669,1,<rshift>,0
3001,B,6,3,1,2,0011001010011010110000111,1011001010011010110000110,1006,793,1,<lshift>,1
3001,B,6,3,1,3,1110111110100000010100001,1100111110100000010100011,1006,704,1,<lshift>,1
3001,B,6,3,1,4,1111110011010000110001000,1111110011000000110001001,1006,670,1,<lshift>,1
3001,B,6,3,1,5,0100011110000100111001011,0100001110000100111011011,1007,523,1,<lshift>,1
3001,B,6,3,1,6,0010010110010110101111010,0010010110010010101111110,1006,656,1,<lshift>,1
3001,B,6,3,1,7,0001101111000100110110110,0001101111000100101110110,1007,855,1,<lshift>,1
3001,B,6,3,1,8,0111101101011000001100101,0111101101001001001100101,1006,886,1,<rshift>,0
3001,B,6,3,1,9,1001111001001100000101010,1001111000001100000101110,1005,1085,1,<lshift>,1
3001,B,6,3,1,10,1101110110001001000001010,0101110110001001000101010,1005,954,0,<rshift>,1
3001,B,6,3,1,11,0001000001111001101010101,0001000001111101100010101,1005,610,1,<lshift>,1
3001,B,6,3,1,12,0001000101101110111001110,0001001101101110110001110,1006,512,1,<lshift>,1
3001,B,6,3,1,13,0001101001101011010010010,1001101001101011010000010,1005,1070,0,<lshift>,0
3001,B,6,3,1,14,0101011001100001001110101,0101011001000001001111101,1006,1009,0,<rshift>,1
3001,B,6,3,1,15,0011010110000100111010111,0011010110010100111010101,1006,739,1,<rshift>,0
3001,B,6,3,1,16,0111001000010111100010110,0111001000010111100001110,1006,631,1,<rshift>,0
3001,B,6,3,1,17,1100111001011100000100001,1100111001011000010100001,1005,1094,0,<rshift>,1
3001,B,6,3,1,18,1001101111010010010100010,1001101111010010010000011,1006,462,1,<lshift>,1
3001,B,6,3,1,19,1000111000111001010101011,1000110001111001010101011,1006,1267,0,<rshift>,1
3001,B,6,3,1,20,0010111110010000110011011,0010111111010000110010011,1006,995,0,<rshift>,1
3001,B,6,3,1,21,0001001000111101110010111,0001001000011101110011111,1007,673,1,<lshift>,1
3001,B,6,3,1,22,1111011101000101000011001,1111011101000101010001001,1007,524,1,<lshift>,1
3001,B,6,3,1,23,1000111001001100000111111,0000111101001100000111111,1006,495,1,<lshift>,1
3001,B,6,3,1,24,1001100000101010101011100,1001100000100110101011100,1005,607,1,<lshift>,1
3001,B,6,3,1,25,1110001111001010010001001,1110001111001000010101001,1006,744,0,<rshift>,1
3001,B,6,3,1,26,0011011000111100101000110,0001011000111110101000110,1006,827,1,<rshift>,0
3001,B,6,3,1,27,1100100111110000000100111,1100101111110000000100101,1006,919,0,<lshift>,0
3001,B,6,3,1,28,1111010000000110110011110,1110011000000110110011110,1007,829,0,<rshift>,1
3001,B,6,3,1,29,0101000011011001010111001,0101000011011001010011011,1006,2227,0,<rshift>,1
3001,B,6,3,1,30,0011011100101010000101010,0010111100101010000101010,1006,1084,0,<rshift>,1
3001,B,6,3,1,31,1110100010000010000110111,1110100010000011000110110,1005,843,1,<lshift>,1
3001,B,6,3,1,32,1101010001101111000100100,1101110001101011000100100,1006,768,1,<lshift>,1
3001,B,6,3,1,33,1000100010101111011010100,1000100011101111011010000,1006,707,1,<lshift>,1
3001,B,6,3,1,34,1010101101001101001111000,1010101101010101001111000,1006,512,1,<lshift>,1
3001,B,6,3,1,35,0100101001001101100100011,0100100011001101100100011,1007,519,1,<lshift>,1
3001,B,7,3,6,1,0101001010111110001011010,0101001010110110011011010,1005,1058,1,<lshift>,1
3001,B,7,3,6,2,1000011010101000101111101,1001011010101000101111100,1005,969,1,<lshift>,1
3001,B,7,3,6,3,0110101011010001101010000,0110101001010101101010000,1006,1358,0,<rshift>,1
3001,B,7,3,6,4,0001100011101011001101011,0001110011100011001101011,1006,836,1,<lshift>,1
3001,B,7,3,6,5,0111010111000100100101011,0111010011001100100101011,1006,891,0,<lshift>,0
3001,B,7,3,6,6,1101101011001100000001010,1111100011001100000001010,1006,1004,1,<lshift>,1
3001,B,7,3,6,7,0001001110001010111110010,0001000110101010111110010,1006,1615,0,<rshift>,1
3001,B,7,3,6,8,1111100010001000110010010,1011100011001000110010010,1006,2069,1,<lshift>,1
312,A,10,2,4,1,0000101011011001111000001,1000101011011001011000001,1008,502,0,<lshift>,0
312,A,10,2,4,2,0011001000110001010101011,0011001000111000010101011,1008,773,0,<lshift>,0
312,A,10,2,4,3,0010010000111111010010110,0010010000111101110010110,1008,428,1,<rshift>,0
312,A,10,2,4,4,0100001000110010111111100,0110001000110010111011100,1008,736,1,<lshift>,1
312,A,10,2,4,5,0001010011001011001011001,0011010001001011001011001,1007,909,1,<lshift>,1
312,A,10,2,4,6,0111110000100110100010101,0111010000101110100010101,1008,1037,1,<rshift>,0
312,A,10,2,4,7,0011010000101101110101101,0011010000101111100101101,1007,393,0,<lshift>,0
312,A,10,2,4,8,1100111001110011010000000,1100111001110010010001000,1007,584,0,<rshift>,1
312,A,10,2,4,9,0101011000111101000110010,0001011000111101100110010,1008,394,1,<rshift>,0
312,A,10,2,4,10,1010001010100111100101110,1010101010100111100101100,1007,406,1,<rshift>,0
312,A,10,2,4,11,0011000001100101010111011,0011000011100101010011011,1008,305,0,<rshift>,1
312,A,10,2,4,12,0010100110011001101011101,0100100110011001101011101,1006,527,0,<rshift>,1
312,A,10,2,4,13,0101000001100100111101111,0101000000100110111101111,1007,676,0,<rshift>,1
312,A,10,2,4,14,1010001010100010110101101,1010001010101010100101101,1008,483,1,<rshift>,0
312,A,10,2,4,15,0111110110010100000010011,0101110110010110000010011,1007,521,0,<rshift>,1
312,A,10,2,4,16,1101010011100001001111010,1001011011100001001111010,1007,399,0,<rshift>,1
312,A,10,2,4,17,0101100100110001111100011,0101100100110101101100011,1007,1478,1,<rshift>,0
312,A,10,2,4,18,1010011111001001011011000,1010111111001001011010000,1008,455,0,<rshift>,1
312,A,10,2,4,19,1000100011010111100011100,1000100011010111110011000,1008,710,0,<rshift>,1
312,A,10,2,4,20,1010010101000011011011100,1010010101001011011001100,1007,685,0,<rshift>,1
312,A,10,2,4,21,0100001011101011000001110,0100000011101011000001111,1007,760,0,<rshift>,1
312,A,10,2,4,22,1100100101000110101010100,1100100101000110001010110,1007,563,1,<rshift>,0
312,A,10,2,4,23,1011000000101111101000001,1011000000101011101010001,1007,797,0,<rshift>,1
312,A,10,2,4,24,0100010011101000110001011,0100010011101000110100011,1007,1701,0,<rshift>,1
312,A,10,2,4,25,0000101000101011111101010,1000101000101011101101010,1008,473,0,<rshift>,1
312,A,10,2,4,26,0101011000111010101110100,0101011010111010101110000,1007,561,1,<rshift>,0
312,A,10,2,4,27,1110010011001110111000001,1110011010001110111000001,1007,662,1,<lshift>,1
312,A,10,2,4,28,0010010010001001101101011,0010010010101001101101010,1007,582,0,<rshift>,1
312,A,10,2,4,29,1011010001110110001000111,1011110001110110000000111,1007,545,1,<rshift>,0
312,A,10,2,4,30,0101010011011001100001010,0101010011011001101000010,1007,612,1,<rshift>,0
312,A,10,2,4,31,0111101100010000001011001,0111111100010000001010001,1007,365,1,<rshift>,0
312,A,10,2,4,32,1101111000011001100010011,1101111000011101100000011,1008,550,0,<rshift>,1
312,A,10,2,4,33,1000011100001101001101001,1000011100001101000101101,1007,496,0,<rshift>,1
312,A,10,2,4,34,1101000101101101010010100,1101000101101101010000101,1008,868,0,<lshift>,0
312,A,10,2,4,35,1110011001000111100001000,0110011001000111100101000,1007,756,1,<rshift>,0
312,A,10,3,4,1,1100011011001100110000001,0100011011001100110100001,1006,864,1,<rshift>,0
312,A,10,3,4,2,1110001000011101001110000,1110001000011001101110000,1006,772,0,<lshift>,0
312,A,10,3,4,3,1000110000110110101010111,1000110000110110101011110,1006,754,1,<rshift>,0
312,A,10,3,4,4,1110001110000000110010110,1110001010000010110010110,1006,758,0,<rshift>,1
312,A,10,3,4,5,1100100011100000100101011,1100100011110000000101011,1005,750,0,<rshift>,1
312,A,10,3,4,6,0110001110000100101110010,0100001110100100101110010,1006,965,1,<lshift>,1
312,A,10,3,4,7,1110000111010001111000100,1110010011010001111000100,1006,884,0,<rshift>,1
